// Start Time: Unknown
// Update Rate: 100.0Hz
// Filter Profile: human (46.1)
// Option Flags: AHS Disabled ICC Disabled 
// Firmware Version: 4.0.2
PacketCounter	SampleTimeFine	Year	Month	Day	Second	UTC_Nano	UTC_Year	UTC_Month	UTC_Day	UTC_Hour	UTC_Minute	UTC_Second	UTC_Valid	Acc_X	Acc_Y	Acc_Z	Mat[1][1]	Mat[2][1]	Mat[3][1]	Mat[1][2]	Mat[2][2]	Mat[3][2]	Mat[1][3]	Mat[2][3]	Mat[3][3]
00472														9.824839	0.551844	0.548563	-0.050183	0.066053	0.996553	-0.162797	-0.985007	0.057090	0.985383	-0.159371	0.060184
00473														9.829826	0.526525	0.571632	-0.050172	0.066179	0.996546	-0.162590	-0.985033	0.057228	0.985417	-0.159157	0.060182
00474														9.859811	0.541690	0.582135	-0.050156	0.066354	0.996535	-0.162461	-0.985043	0.057413	0.985439	-0.159018	0.060185
00475														9.813097	0.567768	0.568819	-0.050089	0.066506	0.996528	-0.162425	-0.985040	0.057575	0.985449	-0.158977	0.060142
00476														9.836885	0.576487	0.545837	-0.050081	0.066677	0.996517	-0.162413	-0.985032	0.057746	0.985451	-0.158955	0.060161
00477														9.783829	0.588981	0.572525	-0.050090	0.066844	0.996505	-0.162402	-0.985024	0.057911	0.985453	-0.158934	0.060195
00478														9.826270	0.624413	0.576952	-0.050056	0.067042	0.996494	-0.162356	-0.985019	0.058114	0.985462	-0.158878	0.060190
00479														9.836437	0.580949	0.549165	-0.050054	0.067257	0.996479	-0.162287	-0.985018	0.058332	0.985473	-0.158796	0.060219
00480														9.848613	0.595778	0.616951	-0.050031	0.067469	0.996466	-0.162162	-0.985025	0.058553	0.985495	-0.158659	0.060223
00481														9.853685	0.578689	0.567118	-0.050013	0.067720	0.996450	-0.162038	-0.985030	0.058811	0.985516	-0.158521	0.060238
00482														9.847171	0.567490	0.607632	-0.049961	0.067991	0.996434	-0.161942	-0.985029	0.059093	0.985535	-0.158412	0.060223
00483														9.840827	0.563220	0.575208	-0.049932	0.068235	0.996419	-0.161914	-0.985019	0.059340	0.985541	-0.158372	0.060232
00484														9.829209	0.577816	0.593795	-0.049920	0.068466	0.996404	-0.161839	-0.985017	0.059576	0.985554	-0.158283	0.060252
00485														9.869504	0.548623	0.575688	-0.049903	0.068706	0.996388	-0.161853	-0.985000	0.059815	0.985552	-0.158283	0.060275
00486														9.809221	0.522494	0.557383	-0.049831	0.068922	0.996377	-0.161967	-0.984968	0.060032	0.985537	-0.158389	0.060245
00487														9.827706	0.550712	0.585146	-0.049767	0.069112	0.996367	-0.162107	-0.984934	0.060222	0.985517	-0.158521	0.060220
00488														9.816114	0.564794	0.603532	-0.049738	0.069309	0.996355	-0.162270	-0.984895	0.060412	0.985492	-0.158673	0.060234
00489														9.815974	0.566192	0.604508	-0.049694	0.069484	0.996345	-0.162515	-0.984845	0.060577	0.985454	-0.158910	0.060233
00490														9.810693	0.593666	0.583644	-0.049697	0.069688	0.996330	-0.162720	-0.984799	0.060765	0.985420	-0.159103	0.060282
00491														9.840594	0.609179	0.594209	-0.049606	0.069876	0.996322	-0.162953	-0.984749	0.060952	0.985386	-0.159330	0.060236
00492														9.798946	0.609260	0.602747	-0.049533	0.070092	0.996310	-0.163239	-0.984689	0.061159	0.985342	-0.159607	0.060216
00493														9.845449	0.586356	0.617544	-0.049448	0.070314	0.996299	-0.163555	-0.984623	0.061372	0.985294	-0.159915	0.060188
00494														9.841141	0.646666	0.607576	-0.049369	0.070509	0.996289	-0.163866	-0.984560	0.061559	0.985247	-0.160218	0.060160
00495														9.846149	0.622077	0.630179	-0.049275	0.070717	0.996279	-0.164224	-0.984488	0.061757	0.985192	-0.160569	0.060124
00496														9.823277	0.655773	0.592919	-0.049168	0.070911	0.996270	-0.164627	-0.984409	0.061942	0.985130	-0.160967	0.060075
00497														9.806527	0.695545	0.589108	-0.049096	0.071046	0.996264	-0.164998	-0.984339	0.062064	0.985071	-0.161334	0.060050
00498														9.824015	0.690415	0.605558	-0.049018	0.071191	0.996258	-0.165271	-0.984285	0.062203	0.985029	-0.161603	0.060014
00499														9.818737	0.717479	0.584528	-0.049008	0.071326	0.996248	-0.165537	-0.984232	0.062322	0.984985	-0.161862	0.060043
00500														9.806188	0.698312	0.591480	-0.048914	0.071468	0.996243	-0.165752	-0.984187	0.062465	0.984954	-0.162074	0.059986
00501														9.823679	0.693310	0.607705	-0.048826	0.071613	0.996237	-0.165926	-0.984149	0.062611	0.984929	-0.162244	0.059935
00502														9.789326	0.739019	0.588037	-0.048753	0.071744	0.996231	-0.166053	-0.984119	0.062745	0.984911	-0.162368	0.059892
00503														9.800710	0.727556	0.571101	-0.048710	0.071880	0.996223	-0.166084	-0.984104	0.062885	0.984908	-0.162394	0.059874
00504														9.800588	0.728596	0.571856	-0.048671	0.072023	0.996215	-0.166098	-0.984093	0.063032	0.984907	-0.162402	0.059859
00505														9.801378	0.762321	0.584060	-0.048622	0.072183	0.996206	-0.166100	-0.984082	0.063197	0.984909	-0.162397	0.059838
00506														9.829427	0.712549	0.571345	-0.048540	0.072336	0.996199	-0.166063	-0.984077	0.063364	0.984920	-0.162356	0.059779
00507														9.787771	0.712382	0.579835	-0.048507	0.072529	0.996186	-0.166036	-0.984069	0.063562	0.984926	-0.162319	0.059777
00508														9.830040	0.748032	0.584157	-0.048444	0.072693	0.996177	-0.165961	-0.984070	0.063738	0.984942	-0.162239	0.059737
00509														9.817487	0.729169	0.591031	-0.048435	0.072837	0.996167	-0.165842	-0.984080	0.063890	0.984962	-0.162112	0.059743
00510														9.835199	0.731598	0.534944	-0.048426	0.072981	0.996157	-0.165688	-0.984097	0.064043	0.984989	-0.161950	0.059747
00511														9.817203	0.731476	0.592889	-0.048406	0.073124	0.996147	-0.165472	-0.984123	0.064200	0.985026	-0.161727	0.059737
00512														9.828587	0.720299	0.576069	-0.048377	0.073277	0.996138	-0.165196	-0.984158	0.064373	0.985074	-0.161444	0.059716
00513														9.810861	0.727571	0.561069	-0.048377	0.073416	0.996127	-0.164947	-0.984190	0.064525	0.985115	-0.161187	0.059721
00514														9.821397	0.683455	0.532973	-0.048375	0.073506	0.996121	-0.164626	-0.984236	0.064635	0.985169	-0.160861	0.059713
00515														9.822168	0.716777	0.545308	-0.048384	0.073614	0.996112	-0.164314	-0.984280	0.064758	0.985221	-0.160542	0.059720
00516														9.838799	0.678873	0.550294	-0.048323	0.073678	0.996111	-0.163956	-0.984334	0.064853	0.985283	-0.160184	0.059646
00517														9.819988	0.645550	0.596278	-0.048292	0.073731	0.996108	-0.163640	-0.984381	0.064930	0.985337	-0.159868	0.059603
00518														9.814765	0.671964	0.574737	-0.048250	0.073766	0.996108	-0.163353	-0.984425	0.064988	0.985387	-0.159581	0.059549
00519														9.826274	0.659463	0.557723	-0.048247	0.073759	0.996108	-0.163046	-0.984475	0.065000	0.985438	-0.159275	0.059524
00520														9.791948	0.703893	0.538238	-0.048274	0.073770	0.996106	-0.162698	-0.984531	0.065027	0.985494	-0.158925	0.059530
00521														9.797072	0.677599	0.561306	-0.048331	0.073763	0.996104	-0.162324	-0.984592	0.065034	0.985553	-0.158548	0.059559
00522														9.803394	0.691231	0.522698	-0.048322	0.073812	0.996101	-0.161903	-0.984656	0.065110	0.985623	-0.158125	0.059530
00523														9.826922	0.691976	0.572966	-0.048397	0.073851	0.996094	-0.161532	-0.984714	0.065159	0.985680	-0.157748	0.059586
00524														9.838385	0.679774	0.556546	-0.048398	0.073912	0.996090	-0.161106	-0.984778	0.065245	0.985750	-0.157319	0.059569
00525														9.825885	0.660199	0.563667	-0.048438	0.073991	0.996082	-0.160715	-0.984836	0.065340	0.985812	-0.156920	0.059595
00526														9.866471	0.629685	0.545479	-0.048428	0.074048	0.996078	-0.160349	-0.984890	0.065420	0.985872	-0.156552	0.059570
00527														9.830038	0.602292	0.576064	-0.048424	0.074085	0.996076	-0.160062	-0.984933	0.065475	0.985918	-0.156264	0.059553
00528														9.842399	0.622619	0.570484	-0.048385	0.074132	0.996074	-0.159808	-0.984970	0.065542	0.985962	-0.156010	0.059505
00529														9.813237	0.641254	0.572645	-0.048369	0.074156	0.996073	-0.159602	-0.985001	0.065581	0.985996	-0.155803	0.059479
00530														9.841454	0.590272	0.560488	-0.048359	0.074207	0.996070	-0.159465	-0.985019	0.065642	0.986018	-0.155664	0.059468
00531														9.789177	0.633756	0.597759	-0.048340	0.074200	0.996071	-0.159346	-0.985038	0.065645	0.986039	-0.155547	0.059440
00532														9.823824	0.596109	0.545957	-0.048306	0.074249	0.996069	-0.159226	-0.985053	0.065706	0.986060	-0.155426	0.059407
00533														9.842179	0.622958	0.573895	-0.048308	0.074295	0.996066	-0.159128	-0.985066	0.065757	0.986075	-0.155326	0.059409
00534														9.854540	0.643184	0.568449	-0.048267	0.074337	0.996064	-0.159067	-0.985072	0.065809	0.986087	-0.155265	0.059371
00535														9.836088	0.616762	0.541821	-0.048216	0.074403	0.996062	-0.159049	-0.985070	0.065883	0.986093	-0.155246	0.059330
00536														9.842870	0.656403	0.586926	-0.048142	0.074485	0.996059	-0.159138	-0.985050	0.065971	0.986082	-0.155335	0.059276
00537														9.859512	0.618390	0.592080	-0.048095	0.074584	0.996054	-0.159241	-0.985026	0.066069	0.986068	-0.155435	0.059251
00538														9.800362	0.623157	0.584526	-0.048033	0.074645	0.996053	-0.159322	-0.985009	0.066135	0.986057	-0.155517	0.059206
00539														9.823449	0.598372	0.550222	-0.048003	0.074715	0.996049	-0.159497	-0.984977	0.066198	0.986031	-0.155689	0.059199
00540														9.816986	0.584907	0.590293	-0.047911	0.074740	0.996051	-0.159757	-0.984933	0.066221	0.985993	-0.155954	0.059129
00541														9.824250	0.630739	0.562450	-0.047856	0.074732	0.996055	-0.160053	-0.984886	0.066205	0.985948	-0.156254	0.059094
00542														9.777583	0.654634	0.548613	-0.047779	0.074718	0.996059	-0.160353	-0.984838	0.066184	0.985903	-0.156559	0.059036
00543														9.825956	0.694838	0.585919	-0.047701	0.074708	0.996064	-0.160704	-0.984782	0.066166	0.985849	-0.156915	0.058981
00544														9.808437	0.700055	0.570387	-0.047622	0.074652	0.996072	-0.161074	-0.984726	0.066101	0.985793	-0.157293	0.058919
00545														9.802883	0.718209	0.621660	-0.047563	0.074625	0.996077	-0.161320	-0.984688	0.066069	0.985755	-0.157544	0.058874
00546														9.815795	0.744580	0.543009	-0.047494	0.074559	0.996085	-0.161544	-0.984656	0.066001	0.985722	-0.157777	0.058809
00547														9.815841	0.743520	0.543631	-0.047496	0.074494	0.996090	-0.161719	-0.984632	0.065926	0.985693	-0.157955	0.058814
00548														9.809436	0.728898	0.583799	-0.047437	0.074437	0.996097	-0.161863	-0.984612	0.065871	0.985672	-0.158106	0.058756
00549														9.809483	0.727899	0.584258	-0.047405	0.074362	0.996104	-0.161979	-0.984598	0.065794	0.985655	-0.158229	0.058720
00550														9.821099	0.714375	0.567264	-0.047360	0.074297	0.996111	-0.162074	-0.984587	0.065732	0.985641	-0.158331	0.058671
00551														9.821147	0.713158	0.567962	-0.047368	0.074195	0.996118	-0.162208	-0.984572	0.065622	0.985619	-0.158470	0.058672
00552														9.808788	0.691519	0.574763	-0.047335	0.074067	0.996129	-0.162327	-0.984561	0.065493	0.985601	-0.158598	0.058627
00553														9.827765	0.723605	0.529767	-0.047327	0.073931	0.996140	-0.162490	-0.984544	0.065351	0.985575	-0.158770	0.058609
00554														9.792300	0.726744	0.571316	-0.047249	0.073802	0.996153	-0.162682	-0.984520	0.065224	0.985547	-0.158974	0.058524
00555														9.804844	0.745193	0.565567	-0.047225	0.073671	0.996164	-0.162840	-0.984503	0.065089	0.985522	-0.159142	0.058490
00556														9.804970	0.743406	0.565731	-0.047121	0.073502	0.996181	-0.162964	-0.984493	0.064932	0.985506	-0.159282	0.058368
00557														9.792658	0.721377	0.571980	-0.047108	0.073341	0.996194	-0.163060	-0.984488	0.064768	0.985491	-0.159389	0.058336
00558														9.763672	0.738031	0.574207	-0.047088	0.073195	0.996205	-0.163114	-0.984488	0.064625	0.985483	-0.159452	0.058297
00559														9.817757	0.757976	0.561137	-0.047113	0.073062	0.996214	-0.163109	-0.984498	0.064489	0.985483	-0.159453	0.058300
00560														9.787847	0.742237	0.552276	-0.047144	0.072923	0.996223	-0.163015	-0.984523	0.064352	0.985497	-0.159366	0.058302
00561														9.787019	0.707935	0.541727	-0.047173	0.072776	0.996232	-0.162902	-0.984551	0.064209	0.985514	-0.159259	0.058300
00562														9.834599	0.714304	0.568308	-0.047207	0.072667	0.996238	-0.162756	-0.984582	0.064104	0.985536	-0.159118	0.058306
00563														9.833748	0.680281	0.557558	-0.047196	0.072534	0.996249	-0.162555	-0.984623	0.063986	0.985570	-0.158925	0.058261
00564														9.822267	0.691298	0.575573	-0.047195	0.072415	0.996257	-0.162315	-0.984669	0.063884	0.985610	-0.158692	0.058225
00565														9.821411	0.657310	0.564658	-0.047188	0.072289	0.996267	-0.162092	-0.984713	0.063773	0.985647	-0.158478	0.058184
00566														9.832097	0.610891	0.536189	-0.047176	0.072183	0.996275	-0.161864	-0.984756	0.063684	0.985685	-0.158257	0.058140
00567														9.808117	0.601904	0.560334	-0.047184	0.072052	0.996284	-0.161646	-0.984800	0.063566	0.985720	-0.158046	0.058114
00568														9.838170	0.614528	0.570694	-0.047171	0.071950	0.996292	-0.161471	-0.984834	0.063478	0.985749	-0.157878	0.058073
00569														9.820692	0.619552	0.555380	-0.047170	0.071888	0.996297	-0.161282	-0.984868	0.063427	0.985780	-0.157693	0.058050
00570														9.837285	0.579901	0.560474	-0.047153	0.071801	0.996304	-0.161180	-0.984890	0.063350	0.985798	-0.157597	0.058014
00571														9.825749	0.591403	0.578778	-0.047185	0.071750	0.996306	-0.161087	-0.984908	0.063300	0.985812	-0.157505	0.058031
00572														9.842303	0.551837	0.584224	-0.047194	0.071686	0.996310	-0.160981	-0.984929	0.063241	0.985829	-0.157402	0.058023
00573														9.837308	0.576895	0.563179	-0.047226	0.071603	0.996315	-0.160938	-0.984942	0.063157	0.985834	-0.157363	0.058038
00574														9.813883	0.575354	0.514671	-0.047202	0.071515	0.996322	-0.160912	-0.984951	0.063075	0.985839	-0.157343	0.057999
00575														9.878940	0.575808	0.556772	-0.047176	0.071389	0.996332	-0.160916	-0.984958	0.062954	0.985840	-0.157356	0.057954
00576														9.819969	0.578683	0.548905	-0.047133	0.071222	0.996346	-0.160936	-0.984965	0.062795	0.985839	-0.157388	0.057886
00577														9.821642	0.616730	0.487687	-0.047087	0.071093	0.996358	-0.160957	-0.984970	0.062674	0.985838	-0.157419	0.057822
00578														9.815183	0.601370	0.527152	-0.046987	0.070922	0.996375	-0.160990	-0.984974	0.062519	0.985837	-0.157469	0.057699
00579														9.828791	0.652128	0.532654	-0.046992	0.070767	0.996385	-0.160915	-0.984996	0.062369	0.985849	-0.157402	0.057674
00580														9.811378	0.656613	0.517270	-0.046963	0.070650	0.996395	-0.160821	-0.985018	0.062264	0.985866	-0.157317	0.057621
00581														9.846428	0.643004	0.549529	-0.046954	0.070531	0.996404	-0.160653	-0.985052	0.062157	0.985893	-0.157157	0.057583
00582														9.827997	0.615242	0.522834	-0.046966	0.070438	0.996410	-0.160404	-0.985097	0.062078	0.985933	-0.156913	0.057564
00583														9.828015	0.614207	0.523704	-0.047007	0.070373	0.996413	-0.160127	-0.985146	0.062023	0.985977	-0.156637	0.057577
00584														9.845508	0.607161	0.540542	-0.047026	0.070302	0.996417	-0.159891	-0.985188	0.061964	0.986014	-0.156404	0.057570
00585														9.854403	0.521504	0.573818	-0.046997	0.070262	0.996421	-0.159727	-0.985216	0.061938	0.986042	-0.156244	0.057525
00586														9.825417	0.539318	0.575540	-0.046904	0.070180	0.996431	-0.159725	-0.985221	0.061872	0.986047	-0.156253	0.057420
00587														9.808993	0.576845	0.571250	-0.046888	0.070087	0.996438	-0.159775	-0.985218	0.061779	0.986039	-0.156309	0.057393
00588														9.802079	0.536706	0.527004	-0.046846	0.070021	0.996445	-0.159870	-0.985207	0.061716	0.986026	-0.156411	0.057348
00589														9.798200	0.594169	0.517038	-0.046852	0.069906	0.996453	-0.159970	-0.985198	0.061595	0.986009	-0.156517	0.057342
00590														9.840826	0.626675	0.521600	-0.046853	0.069810	0.996459	-0.160066	-0.985189	0.061495	0.985994	-0.156618	0.057333
00591														9.829313	0.638112	0.539936	-0.046859	0.069763	0.996462	-0.160082	-0.985189	0.061446	0.985991	-0.156636	0.057333
00592														9.817764	0.650068	0.558302	-0.046855	0.069765	0.996462	-0.160042	-0.985196	0.061451	0.985998	-0.156597	0.057327
00593														9.846741	0.631026	0.557737	-0.046885	0.069757	0.996462	-0.159969	-0.985208	0.061443	0.986008	-0.156523	0.057351
00594														9.834140	0.610810	0.564747	-0.046865	0.069794	0.996460	-0.159875	-0.985220	0.061487	0.986024	-0.156427	0.057331
00595														9.845651	0.598194	0.547884	-0.046829	0.069798	0.996461	-0.159807	-0.985231	0.061501	0.986037	-0.156361	0.057291
00596														9.821538	0.590409	0.571927	-0.046790	0.069789	0.996464	-0.159746	-0.985240	0.061502	0.986049	-0.156303	0.057248
00597														9.809692	0.577089	0.505679	-0.046765	0.069765	0.996467	-0.159824	-0.985229	0.061477	0.986037	-0.156385	0.057224
00598														9.863829	0.598026	0.492450	-0.046699	0.069760	0.996470	-0.159873	-0.985221	0.061480	0.986032	-0.156437	0.057162
00599														9.827168	0.569883	0.522554	-0.046681	0.069704	0.996475	-0.159926	-0.985216	0.061425	0.986025	-0.156495	0.057138
00600														9.829224	0.634369	0.545932	-0.046631	0.069695	0.996478	-0.159980	-0.985208	0.061421	0.986018	-0.156552	0.057091
00601														9.787667	0.632324	0.554094	-0.046611	0.069633	0.996483	-0.160017	-0.985205	0.061360	0.986013	-0.156594	0.057064
00602														9.812804	0.671616	0.542917	-0.046654	0.069613	0.996483	-0.159973	-0.985214	0.061336	0.986018	-0.156549	0.057101
00603														9.817676	0.644849	0.565866	-0.046637	0.069581	0.996486	-0.159922	-0.985224	0.061310	0.986027	-0.156500	0.057076
00604														9.853330	0.639310	0.525584	-0.046636	0.069574	0.996486	-0.159864	-0.985233	0.061307	0.986037	-0.156444	0.057069
00605														9.817644	0.643974	0.567417	-0.046627	0.069569	0.996487	-0.159842	-0.985237	0.061305	0.986041	-0.156422	0.057059
00606														9.810697	0.604488	0.523410	-0.046624	0.069540	0.996489	-0.159854	-0.985237	0.061276	0.986039	-0.156436	0.057052
00607														9.828145	0.597604	0.540217	-0.046630	0.069493	0.996492	-0.159870	-0.985237	0.061227	0.986036	-0.156454	0.057052
00608														9.834839	0.610281	0.501590	-0.046631	0.069419	0.996497	-0.159860	-0.985244	0.061155	0.986038	-0.156448	0.057041
00609														9.840755	0.615742	0.535759	-0.046627	0.069370	0.996501	-0.159780	-0.985259	0.061111	0.986051	-0.156371	0.057024
00610														9.816633	0.607602	0.559834	-0.046585	0.069342	0.996505	-0.159669	-0.985278	0.061097	0.986071	-0.156265	0.056971
00611														9.816634	0.606983	0.560492	-0.046605	0.069302	0.996507	-0.159551	-0.985300	0.061060	0.986089	-0.156147	0.056977
00612														9.845611	0.587699	0.559823	-0.046602	0.069281	0.996508	-0.159423	-0.985321	0.061047	0.986110	-0.156021	0.056962
00613														9.816608	0.605857	0.562161	-0.046608	0.069251	0.996510	-0.159317	-0.985340	0.061023	0.986127	-0.155917	0.056957
00614														9.820394	0.546635	0.573582	-0.046602	0.069244	0.996511	-0.159262	-0.985349	0.061020	0.986136	-0.155862	0.056948
00615														9.798075	0.578618	0.536670	-0.046637	0.069256	0.996508	-0.159239	-0.985352	0.061028	0.986138	-0.155837	0.056982
00616														9.808763	0.558322	0.593182	-0.046652	0.069213	0.996510	-0.159237	-0.985355	0.060984	0.986138	-0.155836	0.056990
00617														9.827013	0.558754	0.537284	-0.046670	0.069206	0.996510	-0.159315	-0.985343	0.060969	0.986124	-0.155914	0.057011
00618														9.839558	0.578441	0.532560	-0.046723	0.069237	0.996505	-0.159406	-0.985328	0.060986	0.986107	-0.155999	0.057074
00619														9.838461	0.545703	0.522364	-0.046717	0.069259	0.996504	-0.159488	-0.985313	0.061004	0.986094	-0.156080	0.057077
00620														9.827893	0.590706	0.552251	-0.046722	0.069300	0.996501	-0.159586	-0.985295	0.061038	0.986078	-0.156176	0.057095
00621														9.839403	0.578151	0.535733	-0.046704	0.069340	0.996499	-0.159697	-0.985275	0.061074	0.986061	-0.156286	0.057089
00622														9.821926	0.584493	0.520564	-0.046669	0.069412	0.996496	-0.159795	-0.985255	0.061145	0.986046	-0.156382	0.057072
00623														9.832538	0.565135	0.576734	-0.046638	0.069507	0.996491	-0.159902	-0.985232	0.061237	0.986031	-0.156485	0.057064
00624														9.832484	0.565468	0.577329	-0.046573	0.069553	0.996491	-0.160025	-0.985209	0.061286	0.986014	-0.156609	0.057014
00625														9.832424	0.565624	0.578197	-0.046600	0.069623	0.996484	-0.160170	-0.985182	0.061343	0.985989	-0.156748	0.057061
00626														9.850695	0.566870	0.522014	-0.046503	0.069652	0.996487	-0.160352	-0.985150	0.061376	0.985964	-0.156935	0.056982
00627														9.827539	0.591782	0.557377	-0.046465	0.069672	0.996487	-0.160603	-0.985108	0.061388	0.985925	-0.157186	0.056963
00628														9.811139	0.629927	0.553708	-0.046461	0.069623	0.996491	-0.160774	-0.985084	0.061330	0.985897	-0.157360	0.056962
00629														9.810102	0.596582	0.543262	-0.046489	0.069598	0.996491	-0.160861	-0.985072	0.061296	0.985882	-0.157447	0.056990
00630														9.834254	0.603477	0.520929	-0.046508	0.069582	0.996492	-0.160927	-0.985063	0.061274	0.985870	-0.157512	0.057011
00631														9.810056	0.595339	0.545454	-0.046521	0.069555	0.996493	-0.160955	-0.985060	0.061243	0.985865	-0.157542	0.057022
00632														9.804206	0.588385	0.512956	-0.046520	0.069531	0.996495	-0.161020	-0.985051	0.061215	0.985854	-0.157608	0.057020
00633														9.822635	0.614066	0.541433	-0.046552	0.069499	0.996495	-0.161015	-0.985054	0.061179	0.985853	-0.157603	0.057047
00634														9.841059	0.639810	0.569863	-0.046540	0.069486	0.996497	-0.161056	-0.985048	0.061166	0.985847	-0.157645	0.057035
00635														9.823625	0.645478	0.555019	-0.046593	0.069476	0.996495	-0.161122	-0.985039	0.061143	0.985834	-0.157708	0.057090
00636														9.801390	0.677531	0.518331	-0.046592	0.069496	0.996494	-0.161171	-0.985030	0.061161	0.985826	-0.157756	0.057095
00637														9.818742	0.671160	0.535433	-0.046632	0.069521	0.996490	-0.161144	-0.985033	0.061181	0.985829	-0.157725	0.057137
00638														9.813890	0.697454	0.514684	-0.046641	0.069586	0.996485	-0.161100	-0.985036	0.061246	0.985835	-0.157678	0.057153
00639														9.830173	0.659053	0.520292	-0.046677	0.069659	0.996478	-0.160939	-0.985058	0.061322	0.985860	-0.157510	0.057191
00640														9.830088	0.659409	0.521455	-0.046697	0.069722	0.996473	-0.160780	-0.985079	0.061390	0.985885	-0.157346	0.057210
00641														9.817385	0.639907	0.528406	-0.046695	0.069822	0.996466	-0.160564	-0.985108	0.061502	0.985920	-0.157124	0.057211
00642														9.839475	0.608049	0.567134	-0.046683	0.069883	0.996462	-0.160327	-0.985141	0.061578	0.985959	-0.156885	0.057194
00643														9.804606	0.620879	0.536210	-0.046728	0.069970	0.996454	-0.160123	-0.985169	0.061669	0.985990	-0.156674	0.057239
00644														9.834516	0.635157	0.547425	-0.046751	0.070034	0.996448	-0.159927	-0.985196	0.061740	0.986021	-0.156473	0.057259
00645														9.792826	0.634060	0.556155	-0.046813	0.070085	0.996442	-0.159779	-0.985217	0.061789	0.986042	-0.156317	0.057319
00646														9.820711	0.582980	0.544632	-0.046865	0.070138	0.996436	-0.159591	-0.985244	0.061844	0.986070	-0.156124	0.057367
00647														9.839020	0.609401	0.573552	-0.046938	0.070165	0.996431	-0.159397	-0.985274	0.061870	0.986098	-0.155924	0.057431
00648														9.821560	0.615602	0.558898	-0.046972	0.070211	0.996426	-0.159209	-0.985301	0.061922	0.986127	-0.155731	0.057460
00649														9.826255	0.589273	0.582121	-0.047029	0.070205	0.996423	-0.159044	-0.985328	0.061917	0.986151	-0.155563	0.057505
00650														9.827196	0.621532	0.595012	-0.047103	0.070224	0.996419	-0.158873	-0.985354	0.061934	0.986175	-0.155387	0.057570
00651														9.845624	0.622282	0.539427	-0.047133	0.070196	0.996419	-0.158713	-0.985382	0.061911	0.986199	-0.155227	0.057585
00652														9.833978	0.634364	0.557915	-0.047154	0.070197	0.996418	-0.158620	-0.985397	0.061914	0.986213	-0.155132	0.057600
00653														9.820311	0.581355	0.553508	-0.047182	0.070176	0.996418	-0.158514	-0.985415	0.061895	0.986229	-0.155026	0.057618
00654														9.792313	0.631943	0.567480	-0.047222	0.070128	0.996420	-0.158403	-0.985436	0.061848	0.986245	-0.154916	0.057643
00655														9.827152	0.593562	0.516422	-0.047283	0.070091	0.996419	-0.158252	-0.985462	0.061811	0.986266	-0.154762	0.057687
00656														9.833865	0.631967	0.562606	-0.047326	0.070094	0.996417	-0.158140	-0.985480	0.061813	0.986282	-0.154648	0.057724
00657														9.803823	0.617686	0.553911	-0.047394	0.070076	0.996415	-0.158001	-0.985504	0.061794	0.986301	-0.154506	0.057779
00658														9.833758	0.631291	0.565226	-0.047419	0.070115	0.996411	-0.157872	-0.985522	0.061836	0.986320	-0.154373	0.057802
00659														9.803700	0.617359	0.556455	-0.047483	0.070129	0.996407	-0.157720	-0.985545	0.061848	0.986342	-0.154216	0.057858
00660														9.827887	0.624887	0.534423	-0.047522	0.070199	0.996400	-0.157599	-0.985560	0.061919	0.986359	-0.154089	0.057899
00661														9.832500	0.599132	0.557745	-0.047558	0.070286	0.996393	-0.157509	-0.985569	0.062005	0.986372	-0.153992	0.057943
00662														9.844035	0.586956	0.541710	-0.047608	0.070354	0.996385	-0.157468	-0.985572	0.062066	0.986376	-0.153944	0.057999
00663														9.802330	0.585865	0.550338	-0.047624	0.070408	0.996381	-0.157445	-0.985572	0.062119	0.986379	-0.153916	0.058023
00664														9.833250	0.632408	0.572771	-0.047606	0.070448	0.996379	-0.157441	-0.985570	0.062162	0.986380	-0.153911	0.058011
00665														9.807911	0.592364	0.585767	-0.047645	0.070480	0.996375	-0.157468	-0.985564	0.062186	0.986374	-0.153934	0.058056
00666														9.826434	0.593256	0.530250	-0.047680	0.070498	0.996372	-0.157542	-0.985552	0.062193	0.986361	-0.154005	0.058097
00667														9.833080	0.631863	0.576275	-0.047688	0.070495	0.996372	-0.157541	-0.985552	0.062189	0.986360	-0.154003	0.058105
00668														9.820402	0.611416	0.583318	-0.047712	0.070491	0.996371	-0.157640	-0.985537	0.062176	0.986343	-0.154101	0.058134
00669														9.820364	0.610926	0.584457	-0.047727	0.070484	0.996370	-0.157756	-0.985520	0.062160	0.986324	-0.154217	0.058155
00670														9.815642	0.636567	0.563650	-0.047768	0.070470	0.996370	-0.157842	-0.985508	0.062134	0.986308	-0.154300	0.058199
00671														9.816595	0.668613	0.576424	-0.047811	0.070471	0.996367	-0.157882	-0.985502	0.062127	0.986300	-0.154338	0.058244
00672														9.821214	0.642008	0.599895	-0.047884	0.070478	0.996363	-0.157888	-0.985501	0.062122	0.986295	-0.154339	0.058317
00673														9.828117	0.655415	0.562056	-0.047943	0.070512	0.996358	-0.157899	-0.985498	0.062146	0.986291	-0.154345	0.058382
00674														9.821052	0.641817	0.602748	-0.047948	0.070576	0.996353	-0.157930	-0.985489	0.062206	0.986286	-0.154371	0.058398
00675														9.827962	0.655636	0.564502	-0.047974	0.070626	0.996349	-0.157987	-0.985477	0.062249	0.986275	-0.154424	0.058436
00676														9.856848	0.637001	0.564741	-0.048072	0.070687	0.996340	-0.157975	-0.985476	0.062295	0.986272	-0.154402	0.058540
00677														9.839436	0.643212	0.550329	-0.048115	0.070726	0.996335	-0.157982	-0.985473	0.062326	0.986269	-0.154404	0.058590
00678														9.815047	0.635737	0.574823	-0.048112	0.070769	0.996332	-0.158001	-0.985467	0.062368	0.986266	-0.154421	0.058594
00679														9.827647	0.655683	0.569905	-0.048128	0.070786	0.996330	-0.158012	-0.985465	0.062382	0.986264	-0.154430	0.058613
00680														9.839262	0.643011	0.553662	-0.048156	0.070821	0.996326	-0.158040	-0.985458	0.062410	0.986258	-0.154454	0.058648
00681														9.820503	0.641783	0.611655	-0.048181	0.070851	0.996323	-0.158009	-0.985462	0.062438	0.986261	-0.154420	0.058676
00682														9.820424	0.641739	0.612967	-0.048236	0.070895	0.996317	-0.157998	-0.985461	0.062473	0.986261	-0.154403	0.058736
00683														9.844677	0.649238	0.590987	-0.048272	0.070931	0.996313	-0.157871	-0.985479	0.062511	0.986279	-0.154271	0.058769
00684														9.815619	0.668013	0.593486	-0.048297	0.070976	0.996308	-0.157797	-0.985488	0.062556	0.986290	-0.154193	0.058796
00685														9.831875	0.629329	0.599164	-0.048310	0.071010	0.996305	-0.157724	-0.985498	0.062592	0.986301	-0.154118	0.058809
00686														9.814525	0.635385	0.584053	-0.048317	0.071014	0.996304	-0.157663	-0.985507	0.062599	0.986310	-0.154056	0.058813
00687														9.819123	0.608884	0.607011	-0.048330	0.071018	0.996304	-0.157641	-0.985510	0.062602	0.986313	-0.154033	0.058825
00688														9.843435	0.615980	0.584704	-0.048348	0.071006	0.996303	-0.157588	-0.985519	0.062590	0.986321	-0.153979	0.058837
00689														9.838773	0.641671	0.563821	-0.048389	0.070987	0.996303	-0.157541	-0.985528	0.062568	0.986326	-0.153931	0.058872
00690														9.802698	0.646132	0.605676	-0.048417	0.070965	0.996303	-0.157515	-0.985534	0.062543	0.986329	-0.153904	0.058895
00691														9.755410	0.638017	0.580632	-0.048472	0.070965	0.996300	-0.157404	-0.985552	0.062541	0.986344	-0.153791	0.058942
00692														9.738060	0.643793	0.566077	-0.048570	0.070959	0.996296	-0.157285	-0.985572	0.062528	0.986358	-0.153666	0.059030
00693														9.720682	0.649690	0.551964	-0.048721	0.070993	0.996286	-0.157061	-0.985606	0.062551	0.986386	-0.153431	0.059170
00694														9.693079	0.675604	0.483114	-0.048981	0.071042	0.996270	-0.156774	-0.985650	0.062577	0.986419	-0.153124	0.059415
00695														9.818822	0.712002	0.476911	-0.049367	0.071129	0.996245	-0.156373	-0.985711	0.062629	0.986464	-0.152694	0.059784
00696														10.030502	0.659963	0.456130	-0.049728	0.071246	0.996218	-0.155862	-0.985786	0.062720	0.986526	-0.152153	0.060126
00697														10.144594	0.578566	0.527814	-0.049947	0.071390	0.996197	-0.155393	-0.985851	0.062857	0.986589	-0.151662	0.060334
00698														10.073828	0.466712	0.599015	-0.049970	0.071663	0.996176	-0.155034	-0.985889	0.063146	0.986644	-0.151286	0.060375
00699														10.014869	0.343295	0.651376	-0.049837	0.071970	0.996161	-0.154886	-0.985891	0.063479	0.986674	-0.151128	0.060281
00700														9.909781	0.245832	0.687525	-0.049545	0.072457	0.996140	-0.155047	-0.985832	0.063995	0.986664	-0.151278	0.060077
00701														9.855458	0.229206	0.698979	-0.049161	0.072950	0.996123	-0.155610	-0.985710	0.064507	0.986595	-0.151835	0.059810
00702														9.829544	0.219345	0.792581	-0.048650	0.073509	0.996107	-0.156643	-0.985509	0.065077	0.986456	-0.152867	0.059460
00703														9.788917	0.255347	0.808052	-0.048103	0.074055	0.996093	-0.158099	-0.985241	0.065614	0.986251	-0.154325	0.059102
00704														9.753802	0.297021	0.857341	-0.047620	0.074562	0.996079	-0.159773	-0.984939	0.066090	0.986005	-0.155999	0.058816
00705														9.733606	0.397646	0.840494	-0.047252	0.074941	0.996068	-0.161458	-0.984642	0.066422	0.985748	-0.157685	0.058626
00706														9.715627	0.537403	0.763736	-0.047001	0.075238	0.996057	-0.162948	-0.984380	0.066667	0.985515	-0.159172	0.058527
00707														9.694373	0.603670	0.737641	-0.046854	0.075428	0.996050	-0.164246	-0.984155	0.066801	0.985306	-0.160468	0.058501
00708														9.704521	0.690569	0.649574	-0.046742	0.075460	0.996053	-0.165345	-0.983972	0.066786	0.985128	-0.161571	0.058470
00709														9.678665	0.780684	0.602640	-0.046730	0.075324	0.996064	-0.166183	-0.983843	0.066604	0.984987	-0.162416	0.058492
00710														9.702485	0.917431	0.521451	-0.046763	0.075032	0.996084	-0.166707	-0.983776	0.066278	0.984897	-0.162955	0.058512
00711														9.681061	1.110230	0.437428	-0.046825	0.074584	0.996115	-0.166818	-0.983788	0.065819	0.984875	-0.163088	0.058508
00712														9.738285	1.167052	0.364220	-0.046898	0.074012	0.996154	-0.166503	-0.983879	0.065261	0.984925	-0.162802	0.058465
00713														9.759625	1.227434	0.331077	-0.046978	0.073344	0.996200	-0.165727	-0.984051	0.064634	0.985052	-0.162061	0.058384
00714														9.790405	1.234509	0.341038	-0.047119	0.072659	0.996243	-0.164451	-0.984306	0.064010	0.985259	-0.160818	0.058328
00715														9.901980	1.204313	0.397744	-0.047288	0.072044	0.996280	-0.162880	-0.984602	0.063469	0.985512	-0.159273	0.058294
00716														9.930703	1.147646	0.383919	-0.047388	0.071515	0.996313	-0.160959	-0.984946	0.063043	0.985823	-0.157378	0.058186
00717														9.963926	0.934419	0.451644	-0.047473	0.071116	0.996338	-0.158923	-0.985295	0.062755	0.986149	-0.155362	0.058077
00718														9.959724	0.695681	0.548960	-0.047447	0.070926	0.996352	-0.156982	-0.985610	0.062686	0.986461	-0.153435	0.057898
00719														9.910049	0.516767	0.643384	-0.047363	0.070918	0.996357	-0.155318	-0.985867	0.062788	0.986728	-0.151779	0.057708
00720														9.858272	0.405773	0.654869	-0.047241	0.071093	0.996350	-0.154075	-0.986045	0.063053	0.986929	-0.150534	0.057535
00721														9.879039	0.343835	0.681292	-0.047114	0.071423	0.996333	-0.153342	-0.986135	0.063441	0.987049	-0.149791	0.057413
00722														9.836264	0.314026	0.677234	-0.047010	0.071888	0.996304	-0.153099	-0.986141	0.063931	0.987092	-0.149528	0.057365
00723														9.912893	0.282369	0.618676	-0.046903	0.072441	0.996269	-0.153257	-0.986080	0.064485	0.987073	-0.149661	0.057352
00724														9.877233	0.267321	0.575705	-0.046777	0.073034	0.996232	-0.153689	-0.985975	0.065065	0.987011	-0.150066	0.057346
00725														9.869941	0.258768	0.615781	-0.046660	0.073567	0.996198	-0.154275	-0.985849	0.065577	0.986926	-0.150628	0.057350
00726														9.813327	0.307769	0.546007	-0.046539	0.074053	0.996168	-0.154995	-0.985706	0.066035	0.986818	-0.151328	0.057352
00727														9.790543	0.369176	0.592911	-0.046441	0.074474	0.996141	-0.155823	-0.985550	0.066417	0.986693	-0.152137	0.057375
00728														9.786579	0.431126	0.583282	-0.046347	0.074860	0.996116	-0.156745	-0.985380	0.066760	0.986551	-0.153042	0.057403
00729														9.781766	0.459919	0.561938	-0.046197	0.075152	0.996101	-0.157751	-0.985202	0.067014	0.986398	-0.154040	0.057369
00730														9.818665	0.489448	0.532853	-0.045987	0.075372	0.996095	-0.158780	-0.985024	0.067204	0.986242	-0.155069	0.057265
00731														9.836765	0.517031	0.559886	-0.045718	0.075520	0.996096	-0.159826	-0.984846	0.067332	0.986086	-0.156124	0.057095
00732														9.815670	0.582504	0.532450	-0.045441	0.075572	0.996104	-0.160851	-0.984677	0.067367	0.985932	-0.157164	0.056900
00733														9.786697	0.600899	0.532636	-0.045165	0.075568	0.996117	-0.161863	-0.984512	0.067348	0.985779	-0.158193	0.056697
00734														9.781437	0.651120	0.594101	-0.044894	0.075507	0.996134	-0.162879	-0.984350	0.067274	0.985624	-0.159229	0.056490
00735														9.771535	0.727106	0.633970	-0.044652	0.075412	0.996152	-0.163875	-0.984192	0.067161	0.985470	-0.160246	0.056305
00736														9.780467	0.804568	0.617263	-0.044390	0.075323	0.996171	-0.164868	-0.984033	0.067059	0.985316	-0.161260	0.056100
00737														9.782376	0.867731	0.640091	-0.044186	0.075180	0.996190	-0.165832	-0.983882	0.066896	0.985164	-0.162244	0.055941
00738														9.749675	0.943388	0.631510	-0.044035	0.075087	0.996204	-0.166766	-0.983733	0.066776	0.985013	-0.163193	0.055841
00739														9.731881	1.080019	0.557176	-0.043978	0.075002	0.996213	-0.167558	-0.983606	0.066656	0.984881	-0.163992	0.055824
00740														9.723472	1.163812	0.526963	-0.043983	0.074909	0.996220	-0.168151	-0.983514	0.066530	0.984780	-0.164589	0.055853
00741														9.734746	1.281916	0.452310	-0.044045	0.074804	0.996225	-0.168488	-0.983465	0.066397	0.984719	-0.164928	0.055921
00742														9.751657	1.405708	0.411560	-0.044204	0.074650	0.996230	-0.168402	-0.983491	0.066224	0.984727	-0.164840	0.056045
00743														9.778658	1.452021	0.329713	-0.044469	0.074458	0.996232	-0.167808	-0.983606	0.066024	0.984816	-0.164240	0.056235
00744														9.815061	1.445100	0.291314	-0.044822	0.074261	0.996231	-0.166639	-0.983817	0.065838	0.984999	-0.163060	0.056471
00745														9.854310	1.346998	0.251033	-0.045251	0.074104	0.996223	-0.164921	-0.984115	0.065713	0.985268	-0.161325	0.056754
00746														9.919975	1.190126	0.270719	-0.045736	0.073993	0.996209	-0.162676	-0.984493	0.065654	0.985619	-0.159056	0.057063
00747														9.953009	0.980054	0.341290	-0.046115	0.073973	0.996193	-0.160146	-0.984903	0.065722	0.986016	-0.156505	0.057265
00748														10.032098	0.746720	0.426797	-0.046408	0.074081	0.996172	-0.157459	-0.985322	0.065939	0.986434	-0.153796	0.057392
00749														10.037788	0.492620	0.582041	-0.046518	0.074309	0.996150	-0.154960	-0.985694	0.066293	0.986825	-0.151279	0.057367
00750														9.988076	0.317954	0.677951	-0.046438	0.074693	0.996125	-0.152831	-0.985992	0.066809	0.987161	-0.149136	0.057203
00751														9.914086	0.137666	0.796532	-0.046213	0.075229	0.996095	-0.151192	-0.986199	0.067467	0.987424	-0.147483	0.056949
00752														9.864799	-0.033828	0.891320	-0.045846	0.075868	0.996063	-0.150126	-0.986311	0.068216	0.987603	-0.146408	0.056608
00753														9.784646	-0.120797	0.903197	-0.045472	0.076517	0.996031	-0.149723	-0.986322	0.068936	0.987682	-0.145994	0.056307
00754														9.677157	-0.124713	0.938819	-0.045108	0.077139	0.995999	-0.149986	-0.986236	0.069590	0.987659	-0.146247	0.056057
00755														9.627113	-0.036150	0.911662	-0.044862	0.077687	0.995968	-0.150680	-0.986092	0.070129	0.987564	-0.146926	0.055944
00756														9.604448	0.130563	0.812395	-0.044782	0.078085	0.995940	-0.151713	-0.985909	0.070477	0.987410	-0.147941	0.055997
00757														9.645968	0.297755	0.757285	-0.044835	0.078376	0.995915	-0.152828	-0.985721	0.070693	0.987235	-0.149035	0.056173
00758														9.717438	0.419818	0.617831	-0.044947	0.078516	0.995899	-0.153900	-0.985550	0.070754	0.987064	-0.150089	0.056381
00759														9.804553	0.527214	0.568130	-0.045151	0.078486	0.995892	-0.154787	-0.985419	0.070643	0.986916	-0.150962	0.056642
00760														9.828177	0.664186	0.487447	-0.045310	0.078349	0.995896	-0.155423	-0.985333	0.070447	0.986808	-0.151593	0.056823
00761														9.914831	0.736960	0.425862	-0.045446	0.078083	0.995911	-0.155743	-0.985304	0.070144	0.986752	-0.151918	0.056939
00762														9.965391	0.813988	0.403755	-0.045439	0.077780	0.995935	-0.155806	-0.985316	0.069842	0.986742	-0.151999	0.056891
00763														9.941991	0.835833	0.438484	-0.045367	0.077514	0.995959	-0.155650	-0.985357	0.069599	0.986770	-0.151863	0.056768
00764														9.922470	0.799542	0.482579	-0.045153	0.077285	0.995986	-0.155363	-0.985415	0.069422	0.986825	-0.151605	0.056502
00765														9.951770	0.779312	0.479260	-0.044861	0.077145	0.996010	-0.155045	-0.985471	0.069346	0.986888	-0.151315	0.056171
00766														9.906969	0.704923	0.533339	-0.044470	0.077129	0.996029	-0.154757	-0.985512	0.069405	0.986951	-0.151056	0.055761
00767														9.857454	0.658194	0.565222	-0.044069	0.077276	0.996035	-0.154631	-0.985516	0.069618	0.986989	-0.150950	0.055380
00768														9.853394	0.555783	0.600908	-0.043668	0.077607	0.996027	-0.154719	-0.985475	0.070002	0.986993	-0.151048	0.055042
00769														9.828120	0.519382	0.610855	-0.043387	0.078038	0.996006	-0.155033	-0.985394	0.070453	0.986956	-0.151357	0.054852
00770														9.786282	0.522332	0.616994	-0.043092	0.078569	0.995977	-0.155726	-0.985246	0.070985	0.986860	-0.152041	0.054691
00771														9.780598	0.520992	0.582676	-0.042783	0.079138	0.995945	-0.156613	-0.985065	0.071546	0.986733	-0.152917	0.054538
00772														9.769422	0.513466	0.515148	-0.042525	0.079704	0.995911	-0.157662	-0.984858	0.072087	0.986577	-0.153952	0.054447
00773														9.799009	0.532176	0.525357	-0.042292	0.080223	0.995879	-0.158870	-0.984629	0.072570	0.986393	-0.155146	0.054387
00774														9.814311	0.629105	0.470057	-0.042050	0.080668	0.995854	-0.160146	-0.984392	0.072978	0.986197	-0.156414	0.054313
00775														9.822538	0.711475	0.453732	-0.041724	0.081028	0.995838	-0.161424	-0.984158	0.073315	0.986003	-0.157693	0.054143
00776														9.759319	0.777349	0.433832	-0.041413	0.081281	0.995830	-0.162592	-0.983948	0.073549	0.985824	-0.158869	0.053964
00777														9.809940	0.892092	0.421739	-0.041097	0.081415	0.995833	-0.163484	-0.983791	0.073684	0.985690	-0.159774	0.053741
00778														9.782143	0.976042	0.445514	-0.040810	0.081441	0.995842	-0.164078	-0.983689	0.073723	0.985603	-0.160388	0.053507
00779														9.799560	0.969572	0.459930	-0.040501	0.081370	0.995861	-0.164305	-0.983653	0.073690	0.985578	-0.160640	0.053208
00780														9.799719	0.968747	0.458292	-0.040312	0.081263	0.995877	-0.164162	-0.983682	0.073623	0.985609	-0.160517	0.052994
00781														9.767877	0.913082	0.507705	-0.040171	0.081118	0.995895	-0.163734	-0.983761	0.073525	0.985686	-0.160108	0.052801
00782														9.767373	0.879081	0.495064	-0.040109	0.080921	0.995913	-0.163110	-0.983876	0.073374	0.985792	-0.159501	0.052661
00783														9.808496	0.846455	0.475950	-0.040130	0.080726	0.995928	-0.162440	-0.983998	0.073213	0.985902	-0.158841	0.052601
00784														9.784317	0.836676	0.499433	-0.040164	0.080540	0.995942	-0.161771	-0.984120	0.073060	0.986011	-0.158180	0.052555
00785														9.811322	0.776332	0.559370	-0.040160	0.080432	0.995951	-0.161196	-0.984220	0.072985	0.986105	-0.157613	0.052492
00786														9.834987	0.750760	0.525005	-0.040207	0.080365	0.995954	-0.160769	-0.984294	0.072934	0.986173	-0.157186	0.052495
00787														9.858602	0.725670	0.490919	-0.040206	0.080383	0.995953	-0.160566	-0.984325	0.072962	0.986206	-0.156983	0.052482
00788														9.841248	0.732029	0.475525	-0.040176	0.080452	0.995949	-0.160455	-0.984337	0.073041	0.986225	-0.156871	0.052455
00789														9.848192	0.746933	0.436720	-0.040090	0.080615	0.995939	-0.160506	-0.984316	0.073214	0.986220	-0.156919	0.052400
00790														9.814130	0.793592	0.416494	-0.039957	0.080871	0.995923	-0.160645	-0.984273	0.073480	0.986203	-0.157055	0.052320
00791														9.813901	0.796346	0.416625	-0.039813	0.081219	0.995901	-0.160822	-0.984218	0.073837	0.986180	-0.157223	0.052247
00792														9.813618	0.799750	0.416781	-0.039666	0.081606	0.995875	-0.160927	-0.984170	0.074237	0.986169	-0.157319	0.052171
00793														9.812634	0.771038	0.405232	-0.039526	0.082021	0.995846	-0.160980	-0.984129	0.074667	0.986166	-0.157360	0.052103
00794														9.829631	0.768830	0.421500	-0.039384	0.082443	0.995817	-0.161011	-0.984091	0.075105	0.986166	-0.157380	0.052032
00795														9.804350	0.732269	0.433253	-0.039274	0.082829	0.995790	-0.160985	-0.984064	0.075505	0.986175	-0.157342	0.051983
00796														9.826225	0.703376	0.471566	-0.039176	0.083212	0.995762	-0.160926	-0.984044	0.075901	0.986189	-0.157270	0.051942
00797														9.801022	0.666113	0.483745	-0.039142	0.083510	0.995738	-0.160851	-0.984032	0.076206	0.986202	-0.157183	0.051949
00798														9.818126	0.662397	0.500864	-0.039134	0.083763	0.995717	-0.160781	-0.984024	0.076461	0.986214	-0.157100	0.051977
00799														9.829792	0.651996	0.484779	-0.039179	0.083965	0.995698	-0.160760	-0.984012	0.076654	0.986216	-0.157065	0.052050
00800														9.853362	0.628777	0.451376	-0.039207	0.084117	0.995684	-0.160814	-0.983992	0.076797	0.986206	-0.157109	0.052106
00801														9.817043	0.633758	0.493658	-0.039288	0.084194	0.995675	-0.160985	-0.983960	0.076851	0.986175	-0.157270	0.052211
00802														9.824570	0.680419	0.467663	-0.039290	0.084246	0.995670	-0.161197	-0.983922	0.076891	0.986140	-0.157477	0.052239
00803														9.829968	0.686479	0.502133	-0.039251	0.084267	0.995670	-0.161448	-0.983880	0.076905	0.986100	-0.157730	0.052223
00804														9.854872	0.726722	0.491415	-0.039205	0.084297	0.995669	-0.161752	-0.983829	0.076925	0.986052	-0.158035	0.052206
00805														9.806762	0.743202	0.549994	-0.039107	0.084339	0.995669	-0.162158	-0.983759	0.076961	0.985990	-0.158446	0.052149
00806														9.803043	0.834701	0.552232	-0.039021	0.084436	0.995665	-0.162621	-0.983676	0.077046	0.985917	-0.158910	0.052115
00807														9.827297	0.843282	0.529677	-0.038932	0.084557	0.995658	-0.163093	-0.983589	0.077154	0.985842	-0.159381	0.052084
00808														9.803439	0.868580	0.565120	-0.038814	0.084699	0.995650	-0.163514	-0.983509	0.077292	0.985777	-0.159803	0.052023
00809														9.803278	0.870151	0.565482	-0.038682	0.084958	0.995633	-0.163941	-0.983418	0.077546	0.985712	-0.160225	0.051968
00810														9.778180	0.831566	0.577319	-0.038593	0.085168	0.995619	-0.164341	-0.983335	0.077746	0.985648	-0.160620	0.051947
00811														9.773115	0.859760	0.556372	-0.038520	0.085412	0.995601	-0.164629	-0.983268	0.077984	0.985603	-0.160901	0.051937
00812														9.809129	0.857432	0.516661	-0.038489	0.085617	0.995584	-0.164790	-0.983225	0.078183	0.985577	-0.161053	0.051952
00813														9.779710	0.877488	0.519222	-0.038477	0.085839	0.995566	-0.164886	-0.983192	0.078400	0.985562	-0.161138	0.051984
00814														9.791386	0.866954	0.503169	-0.038525	0.086039	0.995547	-0.164944	-0.983167	0.078586	0.985550	-0.161182	0.052068
00815														9.790658	0.835749	0.493022	-0.038596	0.086180	0.995532	-0.164933	-0.983159	0.078715	0.985549	-0.161158	0.052160
00816														9.814821	0.844868	0.471714	-0.038673	0.086343	0.995515	-0.164860	-0.983159	0.078867	0.985559	-0.161070	0.052256
00817														9.814653	0.845840	0.473465	-0.038750	0.086464	0.995501	-0.164685	-0.983179	0.078983	0.985585	-0.160883	0.052338
00818														9.831819	0.840403	0.491123	-0.038818	0.086565	0.995490	-0.164424	-0.983214	0.079086	0.985626	-0.160612	0.052400
00819														9.830655	0.776417	0.468742	-0.038855	0.086698	0.995477	-0.164160	-0.983247	0.079226	0.985668	-0.160339	0.052436
00820														9.835900	0.783409	0.503482	-0.038876	0.086822	0.995465	-0.163939	-0.983273	0.079357	0.985704	-0.160111	0.052459
00821														9.864997	0.766027	0.503149	-0.038884	0.086948	0.995454	-0.163751	-0.983294	0.079489	0.985735	-0.159916	0.052473
00822														9.857834	0.752764	0.542936	-0.038803	0.087060	0.995447	-0.163649	-0.983301	0.079618	0.985755	-0.159814	0.052402
00823														9.827547	0.707052	0.520643	-0.038690	0.087143	0.995444	-0.163612	-0.983298	0.079721	0.985766	-0.159782	0.052302
00824														9.815573	0.719772	0.538180	-0.038614	0.087210	0.995441	-0.163609	-0.983293	0.079799	0.985769	-0.159782	0.052237
00825														9.810647	0.746592	0.516835	-0.038562	0.087282	0.995437	-0.163645	-0.983280	0.079877	0.985765	-0.159818	0.052201
00826														9.798179	0.726502	0.523045	-0.038536	0.087303	0.995436	-0.163670	-0.983274	0.079901	0.985762	-0.159843	0.052181
00827														9.798630	0.758855	0.535732	-0.038539	0.087338	0.995433	-0.163711	-0.983265	0.079932	0.985755	-0.159882	0.052192
00828														9.805661	0.772927	0.497411	-0.038524	0.087343	0.995433	-0.163709	-0.983264	0.079940	0.985756	-0.159882	0.052178
00829														9.811469	0.811181	0.543883	-0.038569	0.087374	0.995429	-0.163662	-0.983270	0.079966	0.985762	-0.159830	0.052224
00830														9.823346	0.798872	0.527760	-0.038621	0.087396	0.995425	-0.163640	-0.983273	0.079980	0.985764	-0.159802	0.052276
00831														9.806009	0.804800	0.512863	-0.038638	0.087405	0.995423	-0.163597	-0.983279	0.079989	0.985770	-0.159758	0.052292
00832														9.805496	0.772213	0.501757	-0.038600	0.087422	0.995423	-0.163560	-0.983283	0.080013	0.985778	-0.159723	0.052254
00833														9.800611	0.798473	0.480822	-0.038616	0.087438	0.995421	-0.163572	-0.983280	0.080026	0.985775	-0.159733	0.052273
00834														9.818369	0.824403	0.509643	-0.038598	0.087424	0.995423	-0.163555	-0.983284	0.080016	0.985779	-0.159718	0.052251
00835														9.817889	0.791450	0.498493	-0.038601	0.087394	0.995426	-0.163488	-0.983297	0.079989	0.985790	-0.159653	0.052244
00836														9.788661	0.809374	0.500465	-0.038555	0.087399	0.995427	-0.163458	-0.983301	0.080003	0.985797	-0.159626	0.052197
00837														9.842741	0.831418	0.488490	-0.038543	0.087424	0.995425	-0.163423	-0.983304	0.080032	0.985803	-0.159591	0.052186
00838														9.805895	0.802980	0.517867	-0.038514	0.087437	0.995425	-0.163432	-0.983302	0.080049	0.985803	-0.159601	0.052161
00839														9.805858	0.802989	0.518552	-0.038490	0.087487	0.995422	-0.163443	-0.983296	0.080102	0.985802	-0.159612	0.052146
00840														9.806268	0.835743	0.531318	-0.038493	0.087574	0.995414	-0.163446	-0.983288	0.080187	0.985801	-0.159610	0.052163
00841														9.805679	0.803960	0.520435	-0.038476	0.087688	0.995405	-0.163490	-0.983272	0.080300	0.985794	-0.159649	0.052168
00842														9.835270	0.818861	0.531967	-0.038471	0.087813	0.995394	-0.163571	-0.983248	0.080419	0.985781	-0.159723	0.052191
00843														9.817404	0.793370	0.504966	-0.038443	0.087921	0.995385	-0.163711	-0.983216	0.080524	0.985759	-0.159860	0.052192
00844														9.787601	0.779845	0.495403	-0.038433	0.088010	0.995378	-0.163866	-0.983184	0.080605	0.985734	-0.160011	0.052209
00845														9.812391	0.820651	0.485228	-0.038413	0.088064	0.995374	-0.164050	-0.983150	0.080651	0.985704	-0.160193	0.052213
00846														9.841581	0.802321	0.484855	-0.038414	0.088090	0.995372	-0.164192	-0.983124	0.080670	0.985680	-0.160333	0.052229
00847														9.799887	0.800031	0.492836	-0.038430	0.088076	0.995372	-0.164256	-0.983115	0.080650	0.985669	-0.160396	0.052248
00848														9.802178	0.840178	0.433087	-0.038460	0.088054	0.995373	-0.164268	-0.983115	0.080622	0.985666	-0.160407	0.052275
00849														9.824756	0.839260	0.483884	-0.038489	0.088008	0.995376	-0.164231	-0.983126	0.080575	0.985671	-0.160370	0.052294
00850														9.829593	0.812116	0.506559	-0.038503	0.087982	0.995378	-0.164221	-0.983130	0.080547	0.985672	-0.160361	0.052302
00851														9.847346	0.837603	0.535385	-0.038487	0.087926	0.995383	-0.164239	-0.983131	0.080493	0.985670	-0.160382	0.052279
00852														9.810058	0.775930	0.552751	-0.038480	0.087868	0.995389	-0.164297	-0.983126	0.080434	0.985660	-0.160444	0.052267
00853														9.817251	0.789316	0.514201	-0.038434	0.087812	0.995395	-0.164445	-0.983106	0.080378	0.985637	-0.160599	0.052225
00854														9.817787	0.820605	0.526708	-0.038418	0.087717	0.995404	-0.164613	-0.983086	0.080278	0.985610	-0.160773	0.052208
00855														9.800602	0.825467	0.511318	-0.038411	0.087620	0.995413	-0.164746	-0.983072	0.080177	0.985588	-0.160911	0.052196
00856														9.771425	0.842612	0.513687	-0.038445	0.087563	0.995417	-0.164929	-0.983047	0.080105	0.985556	-0.161093	0.052235
00857														9.830867	0.869500	0.536341	-0.038532	0.087477	0.995421	-0.165054	-0.983035	0.079999	0.985532	-0.161215	0.052316
00858														9.788730	0.833923	0.532809	-0.038585	0.087407	0.995425	-0.165150	-0.983025	0.079916	0.985513	-0.161311	0.052366
00859														9.826140	0.893335	0.517896	-0.038712	0.087303	0.995429	-0.165153	-0.983035	0.079793	0.985508	-0.161309	0.052474
00860														9.801735	0.883876	0.542554	-0.038778	0.087231	0.995433	-0.165131	-0.983045	0.079713	0.985509	-0.161286	0.052525
00861														9.838184	0.878677	0.503441	-0.038849	0.087145	0.995438	-0.165041	-0.983068	0.079621	0.985521	-0.161195	0.052574
00862														9.837731	0.845125	0.492657	-0.038883	0.087070	0.995443	-0.164942	-0.983090	0.079547	0.985537	-0.161097	0.052587
00863														9.825808	0.856041	0.511174	-0.038928	0.086969	0.995450	-0.164873	-0.983110	0.079443	0.985546	-0.161030	0.052609
00864														9.825366	0.822403	0.500151	-0.038937	0.086888	0.995457	-0.164813	-0.983127	0.079365	0.985556	-0.160974	0.052600
00865														9.790958	0.833629	0.468918	-0.039003	0.086795	0.995462	-0.164744	-0.983146	0.079266	0.985565	-0.160905	0.052644
00866														9.796257	0.838284	0.503734	-0.039047	0.086709	0.995468	-0.164671	-0.983165	0.079179	0.985575	-0.160833	0.052668
00867														9.796300	0.837126	0.504812	-0.039087	0.086632	0.995473	-0.164571	-0.983188	0.079101	0.985590	-0.160735	0.052687
00868														9.830781	0.823411	0.538401	-0.039187	0.086529	0.995478	-0.164432	-0.983221	0.078991	0.985610	-0.160593	0.052757
00869														9.801104	0.808097	0.529124	-0.039247	0.086440	0.995484	-0.164245	-0.983259	0.078903	0.985639	-0.160406	0.052787
00870														9.818361	0.800677	0.546317	-0.039282	0.086353	0.995490	-0.164075	-0.983294	0.078821	0.985665	-0.160239	0.052795
00871														9.818403	0.799454	0.547342	-0.039338	0.086257	0.995496	-0.163909	-0.983329	0.078726	0.985691	-0.160074	0.052821
00872														9.794488	0.822385	0.583456	-0.039411	0.086142	0.995503	-0.163794	-0.983358	0.078606	0.985707	-0.159959	0.052864
00873														9.813270	0.790595	0.516356	-0.039512	0.086026	0.995509	-0.163624	-0.983396	0.078485	0.985731	-0.159788	0.052931
00874														9.818547	0.794974	0.551267	-0.039564	0.085900	0.995518	-0.163507	-0.983425	0.078359	0.985749	-0.159674	0.052953
00875														9.800872	0.767288	0.524307	-0.039622	0.085787	0.995525	-0.163425	-0.983448	0.078242	0.985760	-0.159594	0.052986
00876														9.835888	0.785466	0.569572	-0.039651	0.085618	0.995539	-0.163344	-0.983475	0.078075	0.985772	-0.159519	0.052981
00877														9.793732	0.749405	0.565452	-0.039718	0.085481	0.995548	-0.163255	-0.983501	0.077934	0.985784	-0.159432	0.053018
00878														9.813640	0.782222	0.522041	-0.039792	0.085353	0.995556	-0.163103	-0.983537	0.077803	0.985806	-0.159282	0.053058
00879														9.818914	0.786491	0.556879	-0.039865	0.085215	0.995565	-0.162938	-0.983575	0.077664	0.985831	-0.159120	0.053095
00880														9.842929	0.760640	0.523170	-0.039920	0.085122	0.995571	-0.162734	-0.983616	0.077574	0.985862	-0.158917	0.053118
00881														9.843521	0.791785	0.536285	-0.039999	0.085027	0.995575	-0.162514	-0.983660	0.077480	0.985895	-0.158696	0.053163
00882														9.884669	0.760350	0.518728	-0.040013	0.085024	0.995575	-0.162364	-0.983684	0.077483	0.985919	-0.158545	0.053165
00883														9.872105	0.740004	0.524827	-0.039948	0.085050	0.995576	-0.162321	-0.983688	0.077521	0.985929	-0.158506	0.053102
00884														9.839633	0.685686	0.575119	-0.039838	0.085140	0.995572	-0.162420	-0.983664	0.077623	0.985917	-0.158608	0.053015
00885														9.827056	0.666159	0.580411	-0.039668	0.085237	0.995571	-0.162677	-0.983613	0.077731	0.985882	-0.158873	0.052884
00886														9.792675	0.679276	0.547699	-0.039517	0.085320	0.995570	-0.163002	-0.983552	0.077820	0.985834	-0.159205	0.052774
00887														9.829697	0.708047	0.519338	-0.039427	0.085415	0.995565	-0.163370	-0.983484	0.077908	0.985777	-0.159574	0.052730
00888														9.799363	0.662309	0.497122	-0.039339	0.085523	0.995559	-0.163731	-0.983416	0.078010	0.985720	-0.159935	0.052689
00889														9.793058	0.713074	0.560852	-0.039321	0.085568	0.995556	-0.164054	-0.983360	0.078040	0.985667	-0.160256	0.052705
00890														9.792426	0.680907	0.550112	-0.039341	0.085674	0.995546	-0.164396	-0.983296	0.078124	0.985610	-0.160591	0.052768
00891														9.792327	0.681274	0.551432	-0.039339	0.085752	0.995540	-0.164689	-0.983242	0.078185	0.985561	-0.160879	0.052803
00892														9.799591	0.695953	0.513537	-0.039335	0.085845	0.995532	-0.165053	-0.983175	0.078258	0.985500	-0.161238	0.052842
00893														9.863034	0.665237	0.545763	-0.039323	0.085917	0.995526	-0.165443	-0.983105	0.078310	0.985435	-0.161624	0.052873
00894														9.858322	0.691969	0.525187	-0.039284	0.085997	0.995521	-0.165907	-0.983022	0.078371	0.985359	-0.162085	0.052884
00895														9.875447	0.685975	0.541884	-0.039151	0.086079	0.995519	-0.166485	-0.982919	0.078442	0.985266	-0.162668	0.052813
00896														9.821199	0.664280	0.553741	-0.038930	0.086156	0.995521	-0.167170	-0.982797	0.078518	0.985159	-0.163364	0.052663
00897														9.816592	0.690875	0.531397	-0.038693	0.086162	0.995529	-0.167956	-0.982662	0.078521	0.985035	-0.164167	0.052494
00898														9.792657	0.714739	0.565720	-0.038498	0.086180	0.995536	-0.168688	-0.982536	0.078531	0.984917	-0.164911	0.052363
00899														9.771390	0.779783	0.539805	-0.038309	0.086210	0.995540	-0.169453	-0.982403	0.078551	0.984793	-0.165688	0.052243
00900														9.776079	0.752919	0.561093	-0.038153	0.086222	0.995545	-0.170133	-0.982285	0.078554	0.984682	-0.166378	0.052147
00901														9.776645	0.784809	0.573257	-0.038015	0.086224	0.995550	-0.170803	-0.982170	0.078543	0.984572	-0.167057	0.052065
00902														9.823579	0.791878	0.600148	-0.037863	0.086230	0.995556	-0.171394	-0.982067	0.078544	0.984475	-0.167658	0.051963
00903														9.806428	0.797851	0.584004	-0.037737	0.086230	0.995560	-0.171912	-0.981977	0.078537	0.984389	-0.168185	0.051881
00904														9.789807	0.836052	0.580275	-0.037617	0.086229	0.995565	-0.172479	-0.981878	0.078527	0.984295	-0.168760	0.051808
00905														9.814346	0.843791	0.557809	-0.037543	0.086222	0.995568	-0.172989	-0.981790	0.078505	0.984208	-0.169275	0.051775
00906														9.792517	0.876337	0.520853	-0.037475	0.086204	0.995572	-0.173365	-0.981726	0.078479	0.984144	-0.169656	0.051735
00907														9.797739	0.881176	0.555257	-0.037458	0.086167	0.995576	-0.173703	-0.981670	0.078428	0.984085	-0.169997	0.051739
00908														9.805114	0.894986	0.517060	-0.037419	0.086101	0.995583	-0.173914	-0.981638	0.078358	0.984050	-0.170214	0.051706
00909														9.828619	0.837847	0.469879	-0.037341	0.086033	0.995592	-0.173966	-0.981634	0.078301	0.984043	-0.170275	0.051622
00910														9.855202	0.776991	0.528390	-0.037197	0.085940	0.995606	-0.174016	-0.981630	0.078232	0.984040	-0.170342	0.051469
00911														9.801111	0.753632	0.539442	-0.036997	0.085802	0.995625	-0.174115	-0.981621	0.078125	0.984030	-0.170463	0.051257
00912														9.801286	0.752246	0.538195	-0.036792	0.085666	0.995644	-0.174250	-0.981606	0.078019	0.984014	-0.170620	0.051042
00913														9.826002	0.758827	0.514075	-0.036592	0.085461	0.995669	-0.174435	-0.981587	0.077841	0.983989	-0.170832	0.050825
00914														9.785058	0.787387	0.532338	-0.036470	0.085323	0.995686	-0.174608	-0.981566	0.077717	0.983962	-0.171020	0.050696
00915														9.785801	0.817943	0.544136	-0.036327	0.085154	0.995705	-0.174729	-0.981556	0.077569	0.983946	-0.171161	0.050536
00916														9.810464	0.824837	0.520701	-0.036197	0.085062	0.995718	-0.174839	-0.981543	0.077496	0.983932	-0.171285	0.050401
00917														9.815210	0.796996	0.541734	-0.036114	0.084967	0.995729	-0.174824	-0.981552	0.077416	0.983937	-0.171281	0.050302
00918														9.851750	0.792521	0.501320	-0.036060	0.084932	0.995734	-0.174732	-0.981570	0.077396	0.983956	-0.171195	0.050236
00919														9.827272	0.783726	0.524232	-0.035981	0.084903	0.995739	-0.174592	-0.981595	0.077388	0.983983	-0.171064	0.050142
00920														9.839258	0.771420	0.506674	-0.035923	0.084889	0.995743	-0.174431	-0.981623	0.077393	0.984014	-0.170909	0.050070
00921														9.872440	0.693969	0.514295	-0.035851	0.084931	0.995742	-0.174341	-0.981635	0.077451	0.984033	-0.170822	0.049999
00922														9.842108	0.648038	0.490972	-0.035711	0.084940	0.995746	-0.174391	-0.981623	0.077481	0.984029	-0.170882	0.049868
00923														9.812437	0.633771	0.479351	-0.035512	0.084853	0.995760	-0.174527	-0.981604	0.077423	0.984012	-0.171038	0.049668
00924														9.830332	0.658637	0.506755	-0.035326	0.084779	0.995773	-0.174704	-0.981576	0.077372	0.983987	-0.171232	0.049487
00925														9.808019	0.658613	0.456137	-0.035165	0.084666	0.995789	-0.174896	-0.981550	0.077279	0.983959	-0.171442	0.049324
00926														9.791577	0.695798	0.451659	-0.035011	0.084494	0.995809	-0.175079	-0.981529	0.077127	0.983932	-0.171645	0.049157
00927														9.809559	0.719550	0.479349	-0.034871	0.084295	0.995830	-0.175214	-0.981519	0.076948	0.983913	-0.171801	0.048996
00928														9.793176	0.756192	0.475026	-0.034753	0.084097	0.995851	-0.175293	-0.981519	0.076769	0.983903	-0.171898	0.048852
00929														9.805939	0.774322	0.469206	-0.034637	0.083884	0.995873	-0.175303	-0.981532	0.076579	0.983905	-0.171927	0.048703
00930														9.823948	0.798033	0.497171	-0.034538	0.083719	0.995891	-0.175315	-0.981541	0.076432	0.983906	-0.171955	0.048578
00931														9.900192	0.785195	0.521782	-0.034367	0.083582	0.995908	-0.175284	-0.981555	0.076328	0.983918	-0.171943	0.048384
00932														9.828881	0.768338	0.516794	-0.034211	0.083456	0.995924	-0.175292	-0.981561	0.076230	0.983922	-0.171970	0.048210
00933														9.811180	0.741299	0.487569	-0.034075	0.083323	0.995940	-0.175304	-0.981567	0.076123	0.983925	-0.171998	0.048054
00934														9.860323	0.756614	0.441116	-0.033928	0.083210	0.995954	-0.175270	-0.981580	0.076038	0.983936	-0.171981	0.047888
00935														9.860439	0.755517	0.440407	-0.033799	0.083113	0.995967	-0.175170	-0.981603	0.075970	0.983958	-0.171896	0.047736
00936														9.844013	0.793492	0.435867	-0.033603	0.083058	0.995978	-0.175144	-0.981609	0.075951	0.983969	-0.171887	0.047532
00937														9.813622	0.747511	0.411361	-0.033359	0.083096	0.995983	-0.175162	-0.981600	0.076029	0.983974	-0.171922	0.047300
00938														9.836127	0.746943	0.459620	-0.033103	0.083151	0.995987	-0.175134	-0.981597	0.076129	0.983988	-0.171911	0.047056
00939														9.818910	0.754347	0.442492	-0.032930	0.083265	0.995983	-0.175112	-0.981590	0.076272	0.983998	-0.171897	0.046904
00940														9.882376	0.724107	0.472000	-0.032676	0.083415	0.995979	-0.175137	-0.981570	0.076462	0.984002	-0.171935	0.046683
00941														9.881023	0.661132	0.445503	-0.032352	0.083533	0.995980	-0.175224	-0.981542	0.076630	0.983997	-0.172040	0.046392
00942														9.808899	0.614680	0.427053	-0.032010	0.083641	0.995982	-0.175431	-0.981493	0.076787	0.983971	-0.172268	0.046091
00943														9.844658	0.667330	0.481910	-0.031677	0.083775	0.995981	-0.175703	-0.981430	0.076963	0.983933	-0.172559	0.045809
00944														9.815512	0.687377	0.481787	-0.031373	0.083952	0.995976	-0.176022	-0.981356	0.077175	0.983886	-0.172892	0.045565
00945														9.794217	0.754859	0.455272	-0.031026	0.084162	0.995969	-0.176413	-0.981266	0.077424	0.983827	-0.173300	0.045292
00946														9.798814	0.730383	0.474422	-0.030622	0.084409	0.995961	-0.176798	-0.981174	0.077719	0.983771	-0.173704	0.044969
00947														9.757648	0.763641	0.491883	-0.030291	0.084739	0.995943	-0.177199	-0.981073	0.078085	0.983709	-0.174115	0.044733
00948														9.845513	0.744084	0.497724	-0.029933	0.085129	0.995920	-0.177514	-0.980981	0.078516	0.983663	-0.174439	0.044476
00949														9.882224	0.776981	0.468106	-0.029613	0.085569	0.995892	-0.177695	-0.980910	0.078998	0.983640	-0.174626	0.044253
00950														9.893251	0.737375	0.436332	-0.029257	0.085998	0.995866	-0.177778	-0.980856	0.079478	0.983636	-0.174718	0.043986
00951														9.960265	0.619442	0.460460	-0.028790	0.086465	0.995839	-0.177924	-0.980786	0.080014	0.983623	-0.174880	0.043621
00952														9.839322	0.559422	0.486409	-0.028164	0.086883	0.995820	-0.178374	-0.980663	0.080515	0.983560	-0.175361	0.043117
00953														9.802403	0.535340	0.510226	-0.027499	0.087339	0.995799	-0.179110	-0.980485	0.081050	0.983445	-0.176128	0.042606
00954														9.820775	0.510978	0.437210	-0.026944	0.087754	0.995778	-0.179980	-0.980287	0.081519	0.983301	-0.177024	0.042207
00955														9.819631	0.536969	0.518871	-0.026365	0.088055	0.995767	-0.181048	-0.980060	0.081873	0.983121	-0.178123	0.041781
00956														9.773150	0.564594	0.501258	-0.025800	0.088305	0.995759	-0.182260	-0.979811	0.082168	0.982912	-0.179367	0.041374
00957														9.774798	0.663330	0.536044	-0.025271	0.088553	0.995751	-0.183533	-0.979549	0.082454	0.982689	-0.180669	0.041007
00958														9.781769	0.680910	0.494767	-0.024841	0.088816	0.995738	-0.184740	-0.979298	0.082741	0.982473	-0.181898	0.040734
00959														9.800085	0.740728	0.534494	-0.024491	0.089060	0.995725	-0.185774	-0.979081	0.083001	0.982287	-0.182947	0.040524
00960														9.826352	0.794002	0.450314	-0.024091	0.089302	0.995713	-0.186726	-0.978876	0.083274	0.982117	-0.183919	0.040257
00961														9.911962	0.699044	0.501561	-0.023570	0.089512	0.995707	-0.187725	-0.978663	0.083536	0.981939	-0.184950	0.039871
00962														9.851039	0.663144	0.548701	-0.022901	0.089704	0.995705	-0.189080	-0.978380	0.083795	0.981695	-0.186349	0.039367
00963														9.809017	0.630983	0.538230	-0.022142	0.089904	0.995704	-0.190760	-0.978031	0.084066	0.981387	-0.188079	0.038805
00964														9.811041	0.675437	0.474003	-0.021439	0.090048	0.995707	-0.192533	-0.977665	0.084271	0.981056	-0.189900	0.038297
00965														9.813512	0.751438	0.423320	-0.020772	0.090132	0.995713	-0.194278	-0.977308	0.084413	0.980726	-0.191692	0.037811
00966														9.809624	0.843487	0.424517	-0.020062	0.090194	0.995722	-0.195987	-0.976955	0.084546	0.980401	-0.193452	0.037276
00967														9.787784	0.910555	0.396720	-0.019306	0.090295	0.995728	-0.197612	-0.976612	0.084730	0.980090	-0.195132	0.036698
00968														9.781586	0.928086	0.443825	-0.018564	0.090398	0.995733	-0.199065	-0.976300	0.084922	0.979810	-0.196639	0.036119
00969														9.770304	0.973288	0.470472	-0.017822	0.090593	0.995729	-0.200361	-0.976009	0.085213	0.979560	-0.197987	0.035546
00970														9.787685	0.969204	0.481730	-0.017124	0.090856	0.995717	-0.201423	-0.975759	0.085571	0.979355	-0.199095	0.035009
00971														9.746486	1.002042	0.497916	-0.016410	0.091166	0.995701	-0.202287	-0.975544	0.085986	0.979189	-0.200006	0.034450
00972														9.751459	0.978671	0.513816	-0.015672	0.091545	0.995678	-0.203099	-0.975332	0.086478	0.979033	-0.200866	0.033878
00973														9.763013	0.972077	0.491484	-0.015013	0.092010	0.995645	-0.203846	-0.975126	0.087040	0.978888	-0.201652	0.033396
00974														9.827861	0.957172	0.444221	-0.014384	0.092502	0.995609	-0.204532	-0.974930	0.087626	0.978754	-0.202374	0.032943
00975														9.892217	0.910756	0.383161	-0.013667	0.092982	0.995574	-0.205185	-0.974739	0.088219	0.978628	-0.203071	0.032401
00976														9.850322	0.913848	0.385663	-0.012881	0.093458	0.995540	-0.205770	-0.974561	0.088826	0.978516	-0.203708	0.031785
00977														9.849542	0.887971	0.366631	-0.012004	0.093974	0.995502	-0.206398	-0.974367	0.089490	0.978395	-0.204395	0.031092
00978														9.807666	0.891462	0.367950	-0.011113	0.094454	0.995467	-0.206981	-0.974185	0.090124	0.978282	-0.205041	0.030377
00979														9.773077	0.974916	0.357260	-0.010123	0.094984	0.995427	-0.207543	-0.974000	0.090829	0.978174	-0.205674	0.029574
00980														9.767253	1.009434	0.329495	-0.009002	0.095592	0.995380	-0.208090	-0.973807	0.091638	0.978068	-0.206304	0.028658
00981														9.819182	0.945829	0.267878	-0.007719	0.096320	0.995321	-0.208435	-0.973642	0.092605	0.978006	-0.206745	0.027592
00982														9.841595	0.921662	0.292793	-0.006207	0.097167	0.995249	-0.208440	-0.973532	0.093746	0.978015	-0.206868	0.026296
00983														9.762755	0.856466	0.373792	-0.004483	0.098073	0.995169	-0.207891	-0.973527	0.095003	0.978142	-0.206461	0.024752
00984														9.808066	0.737717	0.402854	-0.002543	0.099137	0.995070	-0.207024	-0.973568	0.096466	0.978333	-0.205758	0.023000
00985														10.104185	0.809713	0.378119	-0.000256	0.100424	0.994945	-0.206169	-0.973575	0.098214	0.978516	-0.205102	0.020953
00986														10.295022	0.994929	0.671242	0.002562	0.102123	0.994768	-0.204956	-0.973600	0.100478	0.978768	-0.204141	0.018437
00987														10.046040	0.905407	0.882745	0.005699	0.104490	0.994510	-0.203242	-0.973647	0.103463	0.979112	-0.202716	0.015688
00988														9.993710	0.774440	1.118239	0.009004	0.107587	0.994155	-0.201445	-0.973617	0.107189	0.979459	-0.201232	0.012906
00989														9.900918	0.691719	1.304421	0.012256	0.111475	0.993692	-0.199402	-0.973534	0.111673	0.979841	-0.199513	0.010297
00990														9.724473	0.664146	1.378274	0.015441	0.116109	0.993116	-0.197020	-0.973409	0.116868	0.980278	-0.197468	0.007845
00991														9.685581	0.534372	1.445095	0.018389	0.121254	0.992451	-0.194527	-0.973217	0.122509	0.980725	-0.195311	0.005691
00992														9.687985	0.307226	1.310699	0.021076	0.127029	0.991675	-0.192459	-0.972828	0.128705	0.981079	-0.193569	0.003945
00993														9.845855	0.026451	1.053406	0.023588	0.133305	0.990794	-0.191179	-0.972178	0.135352	0.981272	-0.192612	0.002553
00994														9.943737	-0.296743	0.817176	0.026096	0.139842	0.989830	-0.190839	-0.971260	0.142250	0.981274	-0.192610	0.001342
00995														9.994634	-0.499632	0.607282	0.028741	0.146462	0.988799	-0.191455	-0.970086	0.149256	0.981080	-0.193601	0.000160
00996														10.063311	-0.610706	0.448703	0.031671	0.153117	0.987700	-0.193197	-0.968622	0.156354	0.980649	-0.195773	-0.001096
00997														10.153567	-0.645837	0.288253	0.034905	0.159666	0.986554	-0.196261	-0.966838	0.163419	0.979930	-0.199326	-0.002411
00998														10.161577	-0.579025	0.141744	0.038426	0.166080	0.985363	-0.200668	-0.964721	0.170426	0.978905	-0.204279	-0.003743
00999														10.154925	-0.389618	0.012695	0.042141	0.172361	0.984132	-0.206300	-0.962279	0.177367	0.977581	-0.210501	-0.004994
01000														10.112837	-0.153344	-0.099484	0.046079	0.178373	0.982883	-0.213067	-0.959532	0.184124	0.975950	-0.217904	-0.006209
01001														10.017928	0.102860	-0.222099	0.050335	0.184227	0.981594	-0.220584	-0.956518	0.190832	0.974068	-0.226130	-0.007508
01002														9.923681	0.395000	-0.295929	0.054966	0.189948	0.980254	-0.228601	-0.953269	0.197537	0.971967	-0.234945	-0.008975
01003														9.968389	0.623175	-0.371160	0.059942	0.195458	0.978878	-0.236966	-0.949823	0.204167	0.969667	-0.244199	-0.010617
01004														9.970998	0.812279	-0.327031	0.065198	0.200878	0.977444	-0.245312	-0.946242	0.210828	0.967249	-0.253524	-0.012415
01005														9.889206	0.968532	-0.350307	0.070670	0.206208	0.975953	-0.253673	-0.942517	0.217512	0.964705	-0.262944	-0.014298
01006														9.811470	1.058361	-0.278067	0.076225	0.211455	0.974411	-0.262172	-0.938617	0.224196	0.962006	-0.272553	-0.016109
01007														9.696454	1.106410	-0.210783	0.081890	0.216679	0.972802	-0.270790	-0.934524	0.230948	0.959149	-0.282337	-0.017854
01008														9.760386	1.163393	-0.128245	0.087505	0.221829	0.971151	-0.279629	-0.930224	0.237677	0.956112	-0.292360	-0.019369
01009														9.726371	1.226465	-0.076252	0.093073	0.227131	0.969407	-0.288705	-0.925647	0.244597	0.952883	-0.302638	-0.020579
01010														9.597825	1.326896	-0.001943	0.098394	0.232467	0.967614	-0.298279	-0.920739	0.251536	0.949394	-0.313368	-0.021255
01011														9.598313	1.519944	-0.027365	0.103671	0.237860	0.965751	-0.308502	-0.915404	0.258577	0.945557	-0.324743	-0.021520
01012														9.688384	1.810728	-0.054087	0.108889	0.243231	0.963837	-0.319318	-0.909657	0.265633	0.941371	-0.336695	-0.021383
01013														9.798469	2.150127	-0.045407	0.114233	0.248458	0.961883	-0.330397	-0.903606	0.272642	0.936904	-0.348948	-0.021132
01014														9.912366	2.535097	-0.068729	0.119731	0.253391	0.959926	-0.341443	-0.897392	0.279472	0.932245	-0.361221	-0.020927
01015														9.989127	2.990709	-0.007654	0.125464	0.258198	0.957911	-0.352314	-0.891011	0.286310	0.927434	-0.373407	-0.020823
01016														9.756678	3.354384	-0.060840	0.131313	0.262833	0.955864	-0.362654	-0.884642	0.293069	0.922626	-0.385132	-0.020848
01017														9.605203	3.731636	-0.235194	0.137361	0.267260	0.953784	-0.372276	-0.878387	0.299746	0.917901	-0.396244	-0.021161
01018														9.526140	4.036647	-0.372898	0.143521	0.271455	0.951690	-0.380882	-0.872421	0.306284	0.913417	-0.406440	-0.021818
01019														9.407930	4.224995	-0.505496	0.149920	0.275284	0.949601	-0.388296	-0.866892	0.312610	0.909258	-0.415593	-0.023072
01020														9.478147	4.331849	-0.606342	0.156576	0.278652	0.947543	-0.394340	-0.861952	0.318644	0.905528	-0.423546	-0.025077
01021														9.534826	4.238943	-0.686094	0.163494	0.281480	0.945536	-0.399007	-0.857678	0.324318	0.902255	-0.430299	-0.027912
01022														9.576574	4.047045	-0.741239	0.170547	0.283592	0.943658	-0.402809	-0.853944	0.329430	0.899254	-0.436297	-0.031404
01023														9.746667	3.764977	-0.808773	0.177675	0.284920	0.941941	-0.406261	-0.850562	0.333911	0.896317	-0.442001	-0.035371
01024														9.791026	3.567627	-0.718088	0.184772	0.285429	0.940420	-0.409846	-0.847338	0.337704	0.893244	-0.447826	-0.039582
01025														9.554919	3.336130	-0.747215	0.191727	0.285387	0.939040	-0.414311	-0.843823	0.341040	0.889712	-0.454441	-0.043545
01026														9.486990	3.332712	-0.861096	0.198491	0.284932	0.937771	-0.420300	-0.839620	0.344072	0.885409	-0.462441	-0.046900
01027														9.407620	3.508207	-0.862736	0.205253	0.283934	0.936618	-0.428005	-0.834591	0.346799	0.880161	-0.472059	-0.049777
01028														9.170666	3.721649	-0.912958	0.212086	0.282497	0.935529	-0.437002	-0.828844	0.349351	0.874099	-0.482921	-0.052334
01029														9.020187	4.012836	-0.919444	0.219053	0.280893	0.934406	-0.446790	-0.822485	0.351990	0.867407	-0.494588	-0.054667
01030														8.788270	4.298868	-0.871006	0.226091	0.279304	0.933205	-0.457095	-0.815570	0.354838	0.860202	-0.506789	-0.056724
01031														8.610816	4.550547	-0.942792	0.233223	0.278025	0.931831	-0.467574	-0.808148	0.358149	0.852632	-0.519229	-0.058481
01032														8.507777	4.763373	-1.018973	0.240577	0.277048	0.930251	-0.477880	-0.800386	0.361958	0.844840	-0.531627	-0.060159
01033														8.379930	4.917134	-1.203265	0.248269	0.276286	0.928455	-0.487507	-0.792603	0.366220	0.837078	-0.543549	-0.062087
01034														8.335638	4.980705	-1.396650	0.256102	0.275583	0.926534	-0.496200	-0.785104	0.370671	0.829577	-0.554676	-0.064322
01035														8.343103	5.148379	-1.412295	0.264142	0.274889	0.924481	-0.503985	-0.777911	0.375305	0.822331	-0.565058	-0.066939
01036														8.336383	5.169339	-1.432880	0.272406	0.274189	0.922288	-0.510988	-0.770970	0.380128	0.815283	-0.574827	-0.069910
01037														8.376139	5.054780	-1.465454	0.280932	0.273283	0.919997	-0.517147	-0.764424	0.384987	0.808478	-0.583929	-0.073424
01038														8.356149	5.080222	-1.268469	0.289412	0.272037	0.917734	-0.522365	-0.758529	0.389575	0.802107	-0.592140	-0.077425
01039														8.063879	5.074337	-1.214386	0.297658	0.270681	0.915495	-0.526730	-0.753227	0.393961	0.796213	-0.599484	-0.081628
01040														8.147605	5.194741	-1.272957	0.305866	0.269153	0.913237	-0.530487	-0.748332	0.398225	0.790588	-0.606264	-0.086107
01041														8.310177	4.979928	-1.421208	0.314288	0.267008	0.911005	-0.533949	-0.743735	0.402190	0.784934	-0.612834	-0.091178
01042														8.582185	4.611554	-1.545762	0.322784	0.264150	0.908865	-0.537363	-0.739343	0.405725	0.779135	-0.619352	-0.096703
01043														8.650645	4.238043	-1.706543	0.331190	0.260752	0.906819	-0.540745	-0.735129	0.408875	0.773245	-0.625774	-0.102467
01044														8.670804	3.965478	-1.809865	0.339501	0.256810	0.904869	-0.544322	-0.730919	0.411668	0.767106	-0.632302	-0.108361
01045														8.785276	3.750326	-1.753436	0.347645	0.252297	0.903044	-0.548299	-0.726575	0.414073	0.760599	-0.639089	-0.114256
01046														8.821473	3.648491	-1.516438	0.355532	0.247239	0.901371	-0.552469	-0.722286	0.416031	0.753906	-0.645892	-0.120204
01047														8.675864	3.639371	-1.182239	0.363015	0.241638	0.899906	-0.556743	-0.718186	0.417428	0.747167	-0.652549	-0.126182
01048														8.738957	3.916031	-1.093622	0.370023	0.235680	0.898631	-0.561247	-0.714110	0.418387	0.740327	-0.659167	-0.131963
01049														8.735607	4.148270	-1.153050	0.376348	0.229589	0.897581	-0.565815	-0.710194	0.418900	0.733632	-0.665517	-0.137375
01050														8.661221	4.282217	-1.312027	0.381979	0.223509	0.896736	-0.570541	-0.706299	0.419075	0.727031	-0.671703	-0.142270
01051														8.654723	4.252812	-1.483806	0.387063	0.217623	0.896004	-0.575614	-0.702104	0.419187	0.720313	-0.678004	-0.146492
01052														8.818072	4.064222	-1.670148	0.391858	0.211792	0.895316	-0.580960	-0.697620	0.419298	0.713395	-0.684449	-0.150325
01053														9.006061	4.043284	-1.681743	0.396299	0.205828	0.894752	-0.586257	-0.693270	0.419141	0.706576	-0.690660	-0.154074
01054														8.905386	4.068968	-1.614614	0.400314	0.199698	0.894354	-0.591285	-0.689329	0.418578	0.700094	-0.696381	-0.157870
01055														8.722784	4.037881	-1.573536	0.403898	0.193427	0.894121	-0.596248	-0.685602	0.417658	0.693798	-0.701809	-0.161583
01056														8.549674	3.984032	-1.706227	0.407155	0.187115	0.893987	-0.601588	-0.681547	0.416636	0.687253	-0.707447	-0.164929
01057														8.509052	3.850763	-1.836180	0.410113	0.181001	0.893894	-0.607356	-0.676971	0.415728	0.680387	-0.713407	-0.167702
01058														8.422332	3.674473	-1.801948	0.412777	0.175092	0.893844	-0.613443	-0.671961	0.414916	0.673277	-0.719591	-0.169961
01059														8.420606	3.808075	-1.750700	0.415052	0.169448	0.893879	-0.619848	-0.666527	0.414162	0.665973	-0.725968	-0.171611
01060														8.275382	3.918976	-1.779432	0.417177	0.164157	0.893877	-0.626331	-0.660755	0.413657	0.658539	-0.732431	-0.172835
01061														8.240240	3.996977	-1.756475	0.419304	0.159313	0.893758	-0.632957	-0.654443	0.413605	0.650807	-0.739137	-0.173573
01062														8.209481	4.262533	-1.745588	0.421556	0.154820	0.893488	-0.639942	-0.647303	0.414093	0.642468	-0.746344	-0.173799
01063														8.218404	4.386313	-1.920063	0.423880	0.150487	0.893129	-0.647137	-0.639588	0.414899	0.633671	-0.753844	-0.173723
01064														8.204717	4.399523	-2.014947	0.426242	0.146292	0.892702	-0.654243	-0.631660	0.415898	0.624727	-0.761317	-0.173530
01065														8.096002	4.346085	-2.140629	0.428490	0.142559	0.892229	-0.661173	-0.623562	0.417158	0.615830	-0.768666	-0.172934
01066														8.127039	4.292197	-2.185989	0.430791	0.139280	0.891639	-0.667713	-0.615478	0.418744	0.607107	-0.775750	-0.172144
01067														8.242882	4.125516	-1.986635	0.433352	0.136168	0.890878	-0.673950	-0.607321	0.420658	0.598329	-0.782700	-0.171414
01068														8.291682	4.174324	-1.755287	0.436132	0.132908	0.890014	-0.680215	-0.598824	0.422749	0.589148	-0.789775	-0.170761
01069														8.330527	4.279683	-1.715682	0.439061	0.129439	0.889084	-0.686734	-0.589729	0.424990	0.579329	-0.797161	-0.170037
01070														8.391891	4.459469	-1.675505	0.442053	0.125802	0.888123	-0.693566	-0.579938	0.427362	0.568819	-0.804889	-0.169111
01071														8.182236	4.815781	-1.450759	0.444975	0.121920	0.887205	-0.700936	-0.569197	0.429772	0.557392	-0.813112	-0.167820
01072														7.953261	5.011511	-1.206364	0.447653	0.117865	0.886406	-0.708953	-0.557347	0.432146	0.544970	-0.821871	-0.165937
01073														8.006611	5.010505	-1.318833	0.449920	0.113973	0.885767	-0.717232	-0.544847	0.434420	0.532119	-0.830754	-0.163392
01074														7.891815	5.010165	-1.587066	0.451710	0.110410	0.885307	-0.725072	-0.532756	0.436396	0.519835	-0.839036	-0.160596
01075														7.676102	5.212673	-1.727322	0.453074	0.107111	0.885015	-0.732400	-0.521265	0.438032	0.508246	-0.846646	-0.157724
01076														7.589248	5.430491	-1.783691	0.454065	0.103992	0.884879	-0.739287	-0.510336	0.439331	0.497272	-0.853665	-0.154846
01077														7.531615	5.486301	-1.863579	0.454675	0.101053	0.884906	-0.745642	-0.500207	0.440240	0.487124	-0.859989	-0.152082
01078														7.534668	5.493033	-1.874385	0.454793	0.098278	0.885158	-0.751463	-0.491074	0.440624	0.477981	-0.865557	-0.149484
01079														7.414893	5.608539	-1.680333	0.454429	0.095438	0.885656	-0.756935	-0.482793	0.440408	0.469620	-0.870518	-0.147155
01080														7.256349	5.575338	-1.575132	0.453659	0.092667	0.886345	-0.762289	-0.474851	0.439809	0.461638	-0.875174	-0.144782
01081														7.364191	5.380131	-1.731708	0.452490	0.090016	0.887215	-0.767593	-0.467108	0.438874	0.453930	-0.879606	-0.142266
01082														7.482136	5.221069	-1.794468	0.450979	0.087323	0.888253	-0.773013	-0.459280	0.437621	0.446171	-0.883989	-0.139624
01083														7.313403	5.293572	-1.563062	0.448952	0.084347	0.889566	-0.778937	-0.450862	0.435869	0.437836	-0.888600	-0.136714
01084														7.285523	5.294943	-1.574762	0.446375	0.081054	0.891167	-0.785423	-0.441718	0.433585	0.428789	-0.893485	-0.133510
01085														7.377046	5.250879	-1.745525	0.443196	0.077579	0.893062	-0.792278	-0.432174	0.430723	0.419373	-0.898447	-0.130073
01086														7.533306	5.312993	-1.720636	0.439517	0.073917	0.895188	-0.799173	-0.422786	0.427287	0.410057	-0.903210	-0.126749
01087														7.616032	5.661887	-1.597663	0.435298	0.070117	0.897552	-0.805914	-0.414013	0.423198	0.401271	-0.907566	-0.123711
01088														7.563550	6.181025	-1.437388	0.430597	0.066216	0.900112	-0.812266	-0.406338	0.418465	0.393459	-0.911320	-0.121183
01089														7.505372	6.723419	-1.318212	0.425559	0.062381	0.902778	-0.818044	-0.400027	0.413258	0.386915	-0.914378	-0.119204
01090														7.676144	6.948894	-1.319639	0.420364	0.058760	0.905451	-0.823002	-0.395483	0.407751	0.382050	-0.916592	-0.117887
01091														7.643491	6.846985	-1.559356	0.415219	0.055692	0.908015	-0.826818	-0.393195	0.402205	0.379426	-0.917767	-0.117215
01092														7.603473	6.465961	-1.788810	0.410221	0.053433	0.910419	-0.829447	-0.393140	0.396810	0.379125	-0.917925	-0.116954
01093														7.621736	6.047722	-2.006653	0.405231	0.052088	0.912729	-0.831189	-0.394727	0.391556	0.380674	-0.917321	-0.116661
01094														7.543388	5.719408	-2.059853	0.400084	0.051570	0.915027	-0.832317	-0.397497	0.386323	0.383643	-0.916153	-0.116109
01095														7.639876	5.306823	-2.146653	0.394509	0.051953	0.917422	-0.833003	-0.401246	0.380929	0.387902	-0.914496	-0.115018
01096														8.858296	4.724750	-2.029407	0.388222	0.053395	0.920018	-0.833353	-0.405885	0.375208	0.393456	-0.912363	-0.113077
01097														9.720203	4.603939	-1.785161	0.380821	0.055595	0.922976	-0.833816	-0.410796	0.368778	0.399657	-0.910031	-0.110084
01098														9.615246	4.499990	-1.853730	0.372821	0.057831	0.926099	-0.834592	-0.415298	0.361916	0.405537	-0.907845	-0.106567
01099														9.359327	3.798558	-2.123304	0.364750	0.060000	0.929170	-0.835743	-0.418836	0.355121	0.410477	-0.906078	-0.102626
01100														9.924318	3.243399	-2.953809	0.356496	0.062392	0.932211	-0.837187	-0.421607	0.348374	0.414763	-0.904630	-0.098068
01101														10.486577	3.955483	-3.842026	0.348230	0.064843	0.935164	-0.838984	-0.423433	0.341775	0.418141	-0.903604	-0.093050
01102														10.655270	5.227887	-4.017893	0.340854	0.066696	0.937747	-0.841196	-0.423748	0.335898	0.419772	-0.903321	-0.088332
01103														10.528056	6.205537	-3.533515	0.334650	0.067630	0.939913	-0.843617	-0.422948	0.330796	0.419906	-0.903627	-0.084486
01104														9.773739	6.691932	-2.959133	0.329940	0.068124	0.941541	-0.845303	-0.422688	0.326799	0.420241	-0.903711	-0.081876
01105														9.235218	6.348284	-2.536521	0.325871	0.069711	0.942841	-0.845506	-0.424713	0.323632	0.422998	-0.902640	-0.079461
01106														9.494157	5.397241	-2.431720	0.321597	0.073206	0.944042	-0.843954	-0.429890	0.320837	0.429322	-0.899909	-0.076469
01107														10.229390	4.302527	-2.825027	0.316841	0.077755	0.945286	-0.840961	-0.437870	0.317890	0.438630	-0.895669	-0.073346
01108														10.930964	3.305485	-3.103592	0.312474	0.082097	0.946372	-0.837023	-0.447281	0.315170	0.449168	-0.890618	-0.071047
01109														11.049606	2.122812	-3.062455	0.309105	0.085542	0.947173	-0.832828	-0.456527	0.313019	0.459186	-0.885588	-0.069873
01110														9.985671	1.057803	-2.464759	0.307032	0.088168	0.947606	-0.829655	-0.463027	0.311897	0.466266	-0.881948	-0.069015
01111														8.607248	0.256964	-1.448845	0.305388	0.090687	0.947900	-0.829180	-0.464114	0.311543	0.468187	-0.881121	-0.066539
01112														8.481977	-0.486869	-0.774574	0.302691	0.093672	0.948474	-0.831752	-0.459947	0.310865	0.465367	-0.882992	-0.061310
01113														9.591408	-0.711228	-0.536854	0.297688	0.097141	0.949708	-0.836544	-0.452775	0.308529	0.459974	-0.886318	-0.053523
01114														10.052976	0.448144	-0.186809	0.290942	0.100639	0.951433	-0.842754	-0.443795	0.304651	0.452901	-0.890459	-0.044305
01115														9.931706	2.348095	0.342751	0.283961	0.104440	0.953131	-0.850011	-0.432550	0.300636	0.443675	-0.895540	-0.034052
01116														9.840990	3.255490	0.314806	0.277707	0.109358	0.954421	-0.857312	-0.420072	0.297583	0.433469	-0.900878	-0.022903
01117														9.692058	2.847016	0.057835	0.272151	0.115160	0.955339	-0.863469	-0.408941	0.295275	0.424681	-0.905265	-0.011857
01118														9.395542	1.946652	0.226019	0.266558	0.120919	0.956204	-0.868173	-0.400754	0.292697	0.418595	-0.908171	-0.001845
01119														9.232437	1.208910	0.677361	0.260040	0.126400	0.957289	-0.872283	-0.394441	0.289031	0.414128	-0.910186	0.007686
01120														9.392036	0.687580	1.013015	0.252410	0.131130	0.958694	-0.876468	-0.388818	0.283944	0.409991	-0.911935	0.016790
01121														9.660869	0.520751	1.141645	0.243904	0.134754	0.960392	-0.880930	-0.383340	0.277511	0.405552	-0.913724	0.025210
01122														9.685432	0.641186	1.409828	0.235304	0.137492	0.962148	-0.885539	-0.377663	0.270537	0.400564	-0.915678	0.032889
01123														9.565587	0.729092	1.804700	0.227120	0.139836	0.963775	-0.890178	-0.371554	0.263686	0.394967	-0.917820	0.040091
01124														9.477911	0.610401	2.098760	0.219758	0.142079	0.965153	-0.894735	-0.364927	0.257444	0.388788	-0.920132	0.046927
01125														9.327212	0.489684	2.388489	0.213023	0.144406	0.966317	-0.899215	-0.357848	0.251707	0.382143	-0.922546	0.053622
01126														9.336152	0.332113	2.788500	0.206802	0.146924	0.967288	-0.903576	-0.350472	0.246415	0.375211	-0.924977	0.060278
01127														9.295029	0.251639	3.242734	0.201028	0.150023	0.968029	-0.907913	-0.342508	0.241625	0.367807	-0.927459	0.067354
01128														9.313503	0.263652	3.419948	0.195647	0.153747	0.968547	-0.912344	-0.333669	0.237261	0.359652	-0.930068	0.074989
01129														9.597877	0.334823	3.370263	0.190637	0.158134	0.968840	-0.916882	-0.323896	0.233279	0.350692	-0.932784	0.083244
01130														9.755364	0.467929	3.019841	0.186185	0.162871	0.968921	-0.921529	-0.313080	0.229705	0.340762	-0.935657	0.091799
01131														9.801564	0.784263	2.629520	0.182238	0.167517	0.968879	-0.926446	-0.300831	0.226269	0.329373	-0.938850	0.100373
01132														9.874576	1.101955	2.281736	0.178838	0.171489	0.968818	-0.931704	-0.286885	0.222768	0.316141	-0.942491	0.108471
01133														9.840005	1.376395	2.131446	0.175977	0.174802	0.968750	-0.937086	-0.271664	0.219244	0.301499	-0.946384	0.115998
01134														9.808109	1.582405	2.094731	0.173564	0.177322	0.968727	-0.942378	-0.255764	0.215660	0.286006	-0.950338	0.122713
01135														9.901580	1.750719	2.031140	0.171463	0.179026	0.968788	-0.947315	-0.240079	0.212027	0.270544	-0.954103	0.128429
01136														9.851447	1.940994	2.095818	0.169657	0.180029	0.968920	-0.951806	-0.224965	0.208460	0.255502	-0.957591	0.133186
01137														9.763948	2.158062	2.122053	0.168204	0.180610	0.969065	-0.955884	-0.210279	0.205107	0.240819	-0.960814	0.137273
01138														9.620323	2.189882	1.998318	0.167295	0.181105	0.969130	-0.959530	-0.195949	0.202255	0.226529	-0.963745	0.140994
01139														9.613549	2.145958	1.570795	0.166786	0.181716	0.969103	-0.962727	-0.182241	0.199861	0.212929	-0.966316	0.144548
01140														9.717614	1.995929	1.387949	0.166450	0.182192	0.969072	-0.965509	-0.169440	0.197694	0.200218	-0.968554	0.147705
01141														9.656595	1.899211	1.674175	0.165914	0.182424	0.969120	-0.968050	-0.157245	0.195330	0.188022	-0.970565	0.150507
01142														9.458249	1.933200	1.848671	0.165028	0.182634	0.969232	-0.970435	-0.145421	0.192635	0.176128	-0.972367	0.153236
01143														9.468755	1.743065	1.957981	0.163789	0.182945	0.969383	-0.972620	-0.134287	0.189678	0.164876	-0.973909	0.155942
01144														9.437685	1.532414	2.095203	0.162224	0.183409	0.969559	-0.974613	-0.123876	0.186503	0.154311	-0.975201	0.158657
01145														9.453936	1.383107	2.062128	0.160135	0.183962	0.969801	-0.976541	-0.113760	0.182827	0.143958	-0.976328	0.161430
01146														9.492555	1.305335	1.963861	0.157575	0.184474	0.970123	-0.978454	-0.103550	0.178619	0.133407	-0.977367	0.164182
01147														9.606197	1.291006	1.943282	0.154582	0.184965	0.970511	-0.980319	-0.093378	0.173941	0.122797	-0.978299	0.166890
01148														9.776796	1.225946	1.991159	0.151371	0.185430	0.970929	-0.982066	-0.083481	0.169051	0.112401	-0.979105	0.169468
01149														9.799802	1.287673	1.989977	0.147941	0.185830	0.971381	-0.983713	-0.073737	0.163926	0.102089	-0.979811	0.171895
01150														9.809153	1.282591	2.068733	0.144486	0.186174	0.971835	-0.985256	-0.063865	0.158716	0.091616	-0.980439	0.174202
01151														9.738671	1.373740	2.154587	0.141063	0.186502	0.972275	-0.986689	-0.053782	0.153471	0.080913	-0.980981	0.176433
01152														9.629120	1.450362	2.238529	0.137731	0.186866	0.972682	-0.987979	-0.043675	0.148288	0.070192	-0.981414	0.178604
01153														9.588189	1.504554	2.185989	0.134558	0.187314	0.973040	-0.989114	-0.033629	0.143255	0.059556	-0.981724	0.180750
01154														9.682704	1.629387	2.066399	0.131581	0.187726	0.973368	-0.990090	-0.023722	0.138417	0.049075	-0.981935	0.182744
01155														9.782439	1.716648	2.029443	0.128864	0.187911	0.973696	-0.990915	-0.013703	0.133787	0.038483	-0.982091	0.184438
01156														9.664973	1.677880	1.920858	0.126328	0.187915	0.974027	-0.991609	-0.003240	0.129234	0.027441	-0.982180	0.185929
01157														9.630309	1.717128	1.794528	0.124020	0.187674	0.974370	-0.992153	0.007743	0.124792	0.015876	-0.982201	0.187162
01158														9.676734	1.827198	1.686782	0.121768	0.187233	0.974739	-0.992551	0.019087	0.120327	0.003924	-0.982130	0.188162
01159														9.706597	1.806339	1.799458	0.119403	0.186782	0.975118	-0.992813	0.030490	0.115730	-0.008115	-0.981928	0.189080
01160														9.764862	1.969020	2.044781	0.117158	0.186390	0.975465	-0.992908	0.041958	0.111236	-0.020196	-0.981579	0.189984
01161														9.723771	2.023780	2.067349	0.114951	0.185955	0.975811	-0.992851	0.053297	0.106802	-0.032147	-0.981112	0.190752
01162														9.727332	1.895292	2.065126	0.112743	0.185380	0.976178	-0.992655	0.064400	0.102417	-0.043879	-0.980555	0.191278
01163														9.652778	1.752110	2.013426	0.110456	0.184674	0.976573	-0.992329	0.075383	0.097983	-0.055522	-0.979905	0.191584
01164														9.483009	1.691212	1.937571	0.107982	0.183863	0.977003	-0.991878	0.086376	0.093371	-0.067222	-0.979149	0.191697
01165														9.263215	1.642426	1.877195	0.105267	0.182867	0.977486	-0.991305	0.097336	0.088546	-0.078952	-0.978307	0.191523
01166														9.040121	1.645841	1.938110	0.102397	0.181670	0.978014	-0.990588	0.108400	0.083578	-0.090833	-0.977367	0.191060
01167														8.889727	1.632506	1.944468	0.099394	0.180376	0.978563	-0.989712	0.119631	0.078475	-0.102911	-0.976295	0.190411
01168														8.952039	1.616780	2.109515	0.096295	0.178980	0.979129	-0.988685	0.130870	0.073312	-0.115017	-0.975110	0.189557
01169														9.095453	1.625907	2.088496	0.093039	0.177684	0.979680	-0.987544	0.141862	0.068056	-0.126887	-0.973809	0.188670
01170														9.288263	1.459467	2.046806	0.089609	0.176657	0.980185	-0.986359	0.152180	0.062747	-0.138080	-0.972437	0.187884
01171														9.328731	1.187873	2.101601	0.085768	0.175850	0.980674	-0.985167	0.161800	0.057148	-0.148624	-0.971029	0.187119
01172														9.376417	0.960080	2.022611	0.081423	0.175302	0.981142	-0.983967	0.170867	0.051129	-0.158681	-0.969574	0.186404
01173														9.412864	0.723220	1.918262	0.076521	0.174915	0.981605	-0.982755	0.179446	0.044635	-0.168337	-0.968093	0.185630
01174														9.406504	0.540479	1.977974	0.071177	0.174540	0.982074	-0.981416	0.188155	0.037689	-0.178204	-0.966506	0.184689
01175														9.287809	0.565245	2.056700	0.065426	0.174073	0.982557	-0.979863	0.197360	0.030282	-0.188647	-0.964753	0.183480
01176														9.318261	0.675826	2.183393	0.059418	0.173451	0.983048	-0.978106	0.206875	0.022618	-0.199445	-0.962869	0.181946
01177														9.340399	0.751090	2.240372	0.053217	0.172596	0.983554	-0.976127	0.216696	0.014789	-0.210580	-0.960861	0.180008
01178														9.316935	0.900303	2.138144	0.046885	0.171467	0.984074	-0.973965	0.226595	0.006921	-0.221799	-0.958777	0.177626
01179														9.427229	1.152231	2.092354	0.040414	0.169955	0.984623	-0.971650	0.236421	-0.000927	-0.232943	-0.956672	0.174692
01180														9.520885	1.405142	2.085728	0.033993	0.168226	0.985162	-0.969277	0.245822	-0.008532	-0.243610	-0.954605	0.171414
01181														9.466404	1.648351	2.046568	0.027617	0.166437	0.985665	-0.966972	0.254388	-0.015862	-0.253381	-0.952673	0.167966
01182														9.708773	1.696033	2.203950	0.021379	0.164629	0.986124	-0.964739	0.262212	-0.022860	-0.262337	-0.950864	0.164430
01183														9.916450	1.621841	2.258857	0.015122	0.162918	0.986524	-0.962508	0.269614	-0.029771	-0.270831	-0.949087	0.160887
01184														10.086901	1.498214	2.226810	0.008764	0.161317	0.986864	-0.960178	0.276963	-0.036746	-0.279253	-0.947242	0.157321
01185														10.276127	1.234380	2.200020	0.002145	0.159812	0.987145	-0.957599	0.284722	-0.044013	-0.288096	-0.945195	0.153646
01186														10.440699	1.013719	2.173226	-0.004807	0.158276	0.987383	-0.954564	0.293490	-0.051693	-0.297968	-0.942769	0.149674
01187														10.364042	1.090819	2.311790	-0.012222	0.156626	0.987582	-0.951060	0.303155	-0.059849	-0.308764	-0.939982	0.145256
01188														10.346599	1.496335	2.367965	-0.020009	0.154852	0.987735	-0.947240	0.313168	-0.068286	-0.319901	-0.936988	0.140415
01189														10.321220	2.189356	2.200262	-0.028125	0.152853	0.987849	-0.943255	0.323056	-0.076843	-0.330876	-0.933954	0.135093
01190														10.239011	2.879082	1.915638	-0.036379	0.150617	0.987923	-0.939267	0.332426	-0.085268	-0.341254	-0.931025	0.129376
01191														10.177397	3.333823	1.839666	-0.044535	0.148333	0.987934	-0.935499	0.340778	-0.093337	-0.350511	-0.928368	0.123589
01192														9.961515	3.743773	1.828313	-0.052432	0.146069	0.987884	-0.932089	0.347890	-0.100909	-0.358414	-0.926087	0.117908
01193														9.730733	4.042056	1.723449	-0.060147	0.143699	0.987792	-0.929107	0.353682	-0.108025	-0.364888	-0.924262	0.112238
01194														9.554736	4.131125	1.565042	-0.067584	0.141162	0.987677	-0.926448	0.358542	-0.114638	-0.370306	-0.922779	0.106548
01195														9.377105	3.936757	1.709715	-0.074967	0.138297	0.987549	-0.924000	0.362762	-0.120944	-0.374972	-0.921563	0.100592
01196														9.283279	3.697985	1.885740	-0.082278	0.135159	0.987402	-0.921739	0.366437	-0.126966	-0.378981	-0.920574	0.094432
01197														9.446006	3.702929	1.776416	-0.089447	0.131701	0.987246	-0.919797	0.369310	-0.132603	-0.382063	-0.919927	0.088104
01198														9.730432	3.610038	1.475224	-0.096127	0.127837	0.987126	-0.918076	0.371775	-0.137549	-0.384572	-0.919479	0.081626
01199														9.958747	3.428729	0.994494	-0.102164	0.123410	0.987083	-0.916538	0.374031	-0.141626	-0.386678	-0.919168	0.074898
01200														10.205684	3.052441	0.764623	-0.107187	0.118252	0.987181	-0.915151	0.376341	-0.144448	-0.388599	-0.918903	0.067880
01201														10.139301	2.481753	0.555389	-0.111206	0.112040	0.987462	-0.913851	0.378929	-0.145910	-0.390525	-0.918619	0.060249
01202														9.982670	1.875329	0.527761	-0.113910	0.104411	0.987989	-0.912579	0.382102	-0.145596	-0.392714	-0.918203	0.051758
01203														10.159442	1.392471	0.259829	-0.115004	0.094968	0.988815	-0.911039	0.386693	-0.143097	-0.395958	-0.917305	0.042049
01204														10.335658	0.889694	-0.059097	-0.113950	0.083346	0.989984	-0.909131	0.393076	-0.137736	-0.400619	-0.915721	0.030981
01205														10.264092	0.355516	-0.214501	-0.110917	0.069600	0.991390	-0.907033	0.400617	-0.129604	-0.406188	-0.913598	0.018695
01206														10.347075	0.128361	-0.291028	-0.105716	0.054344	0.992910	-0.905156	0.408166	-0.118713	-0.411724	-0.911289	0.006040
01207														10.581256	0.093902	-0.494054	-0.098216	0.038308	0.994428	-0.903761	0.414897	-0.105244	-0.416616	-0.909062	-0.006129
01208														10.965934	0.537108	-0.185100	-0.088074	0.021582	0.995880	-0.903137	0.420032	-0.088975	-0.420221	-0.907253	-0.017502
01209														11.465005	0.821511	0.274617	-0.074907	0.004961	0.997178	-0.903677	0.422457	-0.069985	-0.421612	-0.906369	-0.027162
01210														12.418556	0.585107	0.424695	-0.058483	-0.010824	0.998230	-0.905183	0.422251	-0.048453	-0.420979	-0.906414	-0.034492
01211														13.488951	0.105245	0.384738	-0.039653	-0.025345	0.998892	-0.906806	0.420787	-0.025321	-0.419679	-0.906805	-0.039669
01212														13.651045	-0.280440	0.390545	-0.019274	-0.038148	0.999086	-0.907954	0.419068	-0.001515	-0.418627	-0.907153	-0.042713
01213														13.163003	-0.104065	0.187865	0.001657	-0.048581	0.998818	-0.908732	0.416811	0.021781	-0.417376	-0.907694	-0.043456
01214														12.556579	0.158609	-0.175674	0.022189	-0.056256	0.998170	-0.909542	0.413328	0.043514	-0.415019	-0.908843	-0.041996
01215														11.763603	0.344425	-0.650909	0.042044	-0.061340	0.997231	-0.910682	0.408199	0.063504	-0.410964	-0.910830	-0.038699
01216														11.181464	0.627846	-1.155675	0.061720	-0.064709	0.995994	-0.912144	0.401459	0.082607	-0.405196	-0.913588	-0.034246
01217														10.560320	0.924016	-1.210414	0.081336	-0.067237	0.994416	-0.913524	0.393955	0.101357	-0.398570	-0.916667	-0.029380
01218														9.995875	0.947155	-1.132667	0.101545	-0.069275	0.992416	-0.914423	0.386396	0.120536	-0.391815	-0.919728	-0.024110
01219														9.642786	0.542648	-1.206692	0.122040	-0.071150	0.989972	-0.914915	0.378590	0.139997	-0.384755	-0.922825	-0.018893
01220														9.511502	-0.150738	-1.314853	0.142323	-0.073300	0.987102	-0.915117	0.370323	0.159444	-0.377234	-0.926007	-0.014372
01221														9.615965	-0.556994	-1.134624	0.161898	-0.076024	0.983875	-0.914804	0.362301	0.178527	-0.370031	-0.928956	-0.010891
01222														9.839646	-0.606349	-0.887820	0.180852	-0.079540	0.980289	-0.913580	0.355537	0.197393	-0.364230	-0.931272	-0.008367
01223														10.067626	-0.318450	-0.782741	0.199031	-0.084081	0.976380	-0.911447	0.350186	0.215951	-0.360072	-0.932899	-0.006937
01224														10.149688	0.150251	-0.821247	0.216376	-0.089673	0.972183	-0.908661	0.345716	0.234126	-0.357094	-0.934045	-0.006678
01225														9.924572	0.744834	-0.805248	0.232644	-0.096179	0.967795	-0.905636	0.341334	0.251624	-0.354542	-0.935008	-0.007693
01226														9.670216	1.282328	-0.844705	0.247753	-0.103158	0.963316	-0.902648	0.336596	0.268195	-0.351915	-0.935981	-0.009723
01227														9.369084	1.738981	-0.736809	0.261667	-0.110321	0.958832	-0.899801	0.331472	0.283696	-0.349124	-0.936993	-0.012532
01228														9.263876	2.088538	-0.563518	0.274812	-0.117514	0.954290	-0.896987	0.326087	0.298465	-0.346255	-0.938008	-0.015796
01229														9.379126	2.277819	-0.404310	0.287161	-0.124371	0.949774	-0.894280	0.320473	0.312348	-0.343223	-0.939058	-0.019195
01230														9.577236	2.457612	-0.359754	0.298897	-0.130938	0.945260	-0.891762	0.314320	0.325520	-0.339737	-0.940244	-0.022816
01231														9.607987	2.724048	-0.421376	0.309944	-0.137031	0.940828	-0.889615	0.307331	0.337835	-0.335440	-0.941685	-0.026649
01232														9.285464	2.913891	-0.386159	0.320712	-0.142528	0.936392	-0.887768	0.299382	0.349627	-0.330170	-0.943428	-0.030516
01233														9.102858	2.915968	-0.345396	0.331327	-0.147272	0.931951	-0.886051	0.290880	0.360975	-0.324247	-0.945357	-0.034114
01234														8.942649	2.824228	-0.369319	0.341967	-0.151263	0.927458	-0.884209	0.282376	0.372074	-0.318173	-0.947303	-0.037185
01235														9.008162	2.665131	-0.473978	0.352371	-0.154731	0.922980	-0.882476	0.273398	0.382740	-0.311563	-0.949374	-0.040209
01236														9.055811	2.569929	-0.495496	0.362563	-0.157855	0.918493	-0.880950	0.263536	0.393035	-0.304099	-0.951646	-0.043514
01237														9.011327	2.574617	-0.374038	0.372535	-0.160468	0.914039	-0.879560	0.253058	0.402909	-0.295959	-0.954050	-0.046868
01238														8.978185	2.650769	-0.101883	0.382589	-0.162463	0.909523	-0.877989	0.242588	0.412657	-0.287681	-0.956429	-0.049829
01239														8.963261	2.870379	0.127921	0.392626	-0.163782	0.904997	-0.876309	0.232054	0.422176	-0.279153	-0.958815	-0.052413
01240														8.858617	3.176751	0.246619	0.402677	-0.164511	0.900437	-0.874580	0.221142	0.431517	-0.270114	-0.961266	-0.054829
01241														8.678502	3.406237	0.318196	0.412496	-0.164820	0.895925	-0.872936	0.209661	0.440482	-0.260441	-0.963782	-0.057393
01242														8.627604	3.480768	0.164410	0.422096	-0.164594	0.891484	-0.871335	0.197769	0.449070	-0.250222	-0.966331	-0.059939
01243														8.542488	3.512694	-0.105021	0.431377	-0.163848	0.887168	-0.869798	0.185532	0.457197	-0.239509	-0.968882	-0.062481
01244														8.470838	3.539537	-0.413516	0.440469	-0.162531	0.882933	-0.868267	0.172923	0.464984	-0.228254	-0.971433	-0.064953
01245														8.448554	3.612287	-0.526702	0.449277	-0.160820	0.878799	-0.866736	0.160035	0.472396	-0.216610	-0.973923	-0.067489
01246														8.384450	3.656324	-0.536938	0.457860	-0.158867	0.874715	-0.865126	0.146979	0.479535	-0.204747	-0.976298	-0.070144
01247														8.289665	3.607559	-0.506545	0.466044	-0.156829	0.870751	-0.863512	0.133773	0.486264	-0.192744	-0.978524	-0.073080
01248														8.329261	3.513957	-0.591875	0.473753	-0.154911	0.866926	-0.861947	0.120279	0.492525	-0.180571	-0.980579	-0.076542
01249														8.372398	3.443794	-0.631896	0.480649	-0.153181	0.863430	-0.860592	0.106685	0.497996	-0.168398	-0.982423	-0.080548
01250														8.341663	3.421607	-0.763586	0.486830	-0.151632	0.860235	-0.859379	0.093200	0.502774	-0.156411	-0.984033	-0.084937
01251														8.203961	3.416030	-0.852242	0.492166	-0.150276	0.857432	-0.858355	0.080190	0.506750	-0.144910	-0.985387	-0.089524
01252														8.095231	3.532171	-0.885973	0.497005	-0.149139	0.854835	-0.857350	0.067649	0.510270	-0.133930	-0.986499	-0.094242
01253														8.044736	3.593851	-0.952083	0.501243	-0.148135	0.852532	-0.856414	0.055960	0.513249	-0.123738	-0.987383	-0.098815
01254														7.956003	3.765755	-0.983019	0.505098	-0.147231	0.850411	-0.855463	0.045060	0.515899	-0.114276	-0.988075	-0.103191
01255														7.973919	3.973341	-0.971388	0.508579	-0.146339	0.848489	-0.854553	0.034724	0.518202	-0.105296	-0.988625	-0.107394
01256														7.862830	4.144578	-0.997831	0.511851	-0.145364	0.846686	-0.853616	0.024862	0.520309	-0.096685	-0.989066	-0.111359
01257														7.752323	4.154792	-1.067611	0.514823	-0.144029	0.845111	-0.852751	0.015343	0.522092	-0.088163	-0.989455	-0.114922
01258														7.674054	4.184933	-1.067310	0.517559	-0.142255	0.843739	-0.851947	0.005939	0.523595	-0.079495	-0.989812	-0.118120
01259														7.653694	4.222542	-1.210958	0.519848	-0.140150	0.842684	-0.851351	-0.003672	0.524584	-0.070426	-0.990123	-0.121226
01260														7.938854	4.302436	-1.358392	0.521762	-0.138035	0.841849	-0.850915	-0.013780	0.525122	-0.060885	-0.990332	-0.124645
01261														8.536384	4.661893	-1.122114	0.523415	-0.136063	0.841144	-0.850551	-0.024352	0.525329	-0.050994	-0.990401	-0.128475
01262														8.393465	4.943248	-0.898015	0.525267	-0.134030	0.840316	-0.849944	-0.034935	0.525713	-0.041105	-0.990361	-0.132268
01263														7.866240	4.989956	-0.922537	0.527470	-0.131654	0.839311	-0.848990	-0.045078	0.526483	-0.031479	-0.990270	-0.135550
01264														7.631151	5.003152	-1.222886	0.529966	-0.128716	0.838193	-0.847730	-0.054648	0.527605	-0.022105	-0.990175	-0.138078
01265														7.677118	5.228188	-1.627802	0.532388	-0.125064	0.837211	-0.846409	-0.064111	0.528660	-0.012442	-0.990075	-0.139987
01266														7.966376	5.820449	-1.649776	0.534750	-0.121027	0.836298	-0.845006	-0.073447	0.529689	-0.002683	-0.989928	-0.141544
01267														7.825784	6.464854	-1.486312	0.537076	-0.116707	0.835421	-0.843509	-0.081897	0.530835	0.006466	-0.989784	-0.142429
01268														7.365320	6.775132	-1.407073	0.539400	-0.111502	0.834634	-0.841902	-0.089954	0.532080	0.015751	-0.989685	-0.142395
01269														6.991346	7.130719	-1.428897	0.541344	-0.105504	0.834155	-0.840394	-0.098762	0.532902	0.026159	-0.989502	-0.142130
01270														7.038981	7.234088	-1.701305	0.543081	-0.099028	0.833820	-0.838803	-0.109375	0.533336	0.038384	-0.989055	-0.142465
01271														7.350523	6.919225	-1.922924	0.544747	-0.092358	0.833499	-0.836931	-0.122549	0.533411	0.052880	-0.988156	-0.144055
01272														7.494823	6.482810	-2.014205	0.546393	-0.085562	0.833147	-0.834585	-0.138954	0.533066	0.070159	-0.986596	-0.147332
01273														7.711282	6.022662	-2.124958	0.547827	-0.078465	0.832904	-0.831778	-0.157737	0.532226	0.089618	-0.984359	-0.151678
01274														7.808917	5.715139	-2.147662	0.549060	-0.071438	0.832724	-0.828515	-0.177635	0.531045	0.109984	-0.981500	-0.156719
01275														7.841403	5.716230	-2.219611	0.550045	-0.064998	0.832602	-0.824984	-0.197261	0.529613	0.129816	-0.978194	-0.162125
01276														7.670748	5.674990	-2.006856	0.551024	-0.058920	0.832407	-0.821139	-0.215997	0.528276	0.148671	-0.974615	-0.167401
01277														7.300141	5.380221	-1.805416	0.551679	-0.052814	0.832383	-0.817244	-0.233602	0.526824	0.166623	-0.970897	-0.172035
01278														6.930030	5.092042	-1.590422	0.551792	-0.046338	0.832694	-0.813467	-0.250000	0.525139	0.183840	-0.967136	-0.175642
01279														6.622440	4.868270	-1.258860	0.550979	-0.039229	0.833596	-0.809957	-0.265701	0.522851	0.200977	-0.963257	-0.178170
01280														6.351068	4.480761	-1.183121	0.549109	-0.031313	0.835164	-0.806788	-0.280654	0.519930	0.218112	-0.959298	-0.179373
01281														6.208328	4.148008	-1.197861	0.545853	-0.022466	0.837580	-0.804058	-0.295202	0.516088	0.235661	-0.955171	-0.179201
01282														6.092234	3.680140	-1.339444	0.541191	-0.013168	0.840797	-0.801752	-0.309610	0.511210	0.253588	-0.950772	-0.178116
01283														5.946261	3.297707	-1.548628	0.534904	-0.003809	0.844905	-0.800033	-0.323860	0.505036	0.271707	-0.946097	-0.176281
01284														6.402821	3.202534	-1.935777	0.527044	0.005743	0.849818	-0.798795	-0.337990	0.497684	0.290088	-0.941132	-0.173548
01285														7.526128	3.779797	-2.106939	0.517622	0.015656	0.855466	-0.797897	-0.352154	0.489233	0.308915	-0.935811	-0.169791
01286														8.588200	4.391267	-1.921931	0.507304	0.025509	0.861390	-0.797152	-0.365863	0.480306	0.327402	-0.930319	-0.165269
01287														10.481816	4.065736	-1.625846	0.497423	0.034741	0.866812	-0.796929	-0.376476	0.472409	0.342746	-0.925775	-0.159581
01288														13.066016	3.151101	-1.899631	0.488348	0.043034	0.871587	-0.797697	-0.382958	0.465856	0.353829	-0.922763	-0.152689
01289														14.436783	2.165391	-3.005016	0.479335	0.049702	0.876224	-0.799293	-0.387599	0.459236	0.362448	-0.920487	-0.146063
01290														13.458668	2.115745	-4.019652	0.470872	0.054144	0.880538	-0.800990	-0.392062	0.452441	0.369723	-0.918344	-0.141242
01291														13.710624	3.347096	-3.812925	0.464139	0.057662	0.883883	-0.802685	-0.394554	0.447240	0.374528	-0.917062	-0.136843
01292														16.923436	5.603346	-3.175241	0.460728	0.061143	0.885433	-0.803888	-0.394063	0.445509	0.376156	-0.917047	-0.132404
01293														18.207388	6.931707	-2.847438	0.461411	0.063655	0.884900	-0.804125	-0.391375	0.447446	0.374810	-0.918027	-0.129398
01294														14.567186	5.766460	-2.313707	0.466411	0.065146	0.882166	-0.802653	-0.387967	0.453022	0.371764	-0.919368	-0.128663
01295														10.369418	2.738879	-0.323988	0.473727	0.067196	0.878104	-0.799940	-0.384204	0.460959	0.368346	-0.920800	-0.128256
01296														7.812798	0.252809	1.497133	0.480139	0.071332	0.874287	-0.797695	-0.379099	0.469006	0.364897	-0.922603	-0.125119
01297														6.628637	-0.762075	2.136003	0.482903	0.076540	0.872322	-0.797751	-0.372344	0.474293	0.361106	-0.924933	-0.118746
01298														6.906848	-0.308585	1.951222	0.481064	0.081808	0.872860	-0.800829	-0.364118	0.475491	0.356723	-0.927753	-0.109650
01299														7.991774	1.260827	1.785669	0.474926	0.086697	0.875745	-0.806871	-0.354341	0.472654	0.351290	-0.931089	-0.098332
01300														10.260987	3.085629	1.913017	0.466378	0.091937	0.879795	-0.814209	-0.344148	0.467574	0.345768	-0.934403	-0.085647
01301														13.018178	4.793967	1.598173	0.456985	0.097716	0.884091	-0.821669	-0.334256	0.461663	0.340625	-0.937403	-0.072460
01302														13.541915	6.212312	1.385496	0.448126	0.102806	0.888039	-0.828159	-0.326344	0.455689	0.336654	-0.939644	-0.061103
01303														11.963401	5.904532	0.994692	0.440325	0.107439	0.891387	-0.832227	-0.323714	0.450119	0.336915	-0.940035	-0.053126
01304														10.502871	4.563998	1.031467	0.432870	0.112017	0.894469	-0.833524	-0.328150	0.444472	0.343308	-0.937960	-0.048678
01305														10.035503	3.699358	1.132829	0.425077	0.115941	0.897701	-0.833099	-0.337663	0.438097	0.353914	-0.934099	-0.046942
01306														9.684980	3.049968	1.170962	0.417476	0.118823	0.900885	-0.831368	-0.350244	0.431457	0.366797	-0.929091	-0.047433
01307														9.171856	1.936073	1.439539	0.410031	0.120790	0.904038	-0.829083	-0.363741	0.424634	0.380127	-0.923635	-0.049000
01308														8.565972	0.703932	1.776990	0.402181	0.122063	0.907387	-0.827433	-0.375792	0.417295	0.391925	-0.918630	-0.050137
01309														8.067177	-0.384073	1.760035	0.393585	0.122788	0.911051	-0.827422	-0.384529	0.409281	0.400580	-0.914910	-0.049747
01310														8.008540	-0.968374	1.413709	0.384255	0.122837	0.915019	-0.829414	-0.389373	0.400577	0.405489	-0.912853	-0.047735
01311														8.278919	-0.854999	1.088509	0.374204	0.122485	0.919222	-0.833305	-0.390531	0.391266	0.406909	-0.912405	-0.044071
01312														8.867085	0.155666	0.914997	0.363823	0.121959	0.923449	-0.838446	-0.388985	0.381706	0.405761	-0.913135	-0.039266
01313														9.269275	1.847536	0.744909	0.353891	0.121390	0.927376	-0.843870	-0.386107	0.372564	0.403292	-0.914432	-0.034202
01314														9.545790	3.327118	0.769759	0.344970	0.120744	0.930815	-0.848786	-0.383225	0.364281	0.400696	-0.915729	-0.029715
01315														9.569305	4.111866	0.995166	0.337364	0.120405	0.933642	-0.852681	-0.381178	0.357267	0.398900	-0.916628	-0.025929
01316														9.221297	4.296946	1.106525	0.330796	0.120408	0.935989	-0.855680	-0.380002	0.351298	0.397977	-0.917115	-0.022672
01317														8.697320	4.268643	1.055942	0.325139	0.120582	0.937947	-0.858040	-0.379351	0.346209	0.397558	-0.917362	-0.019877
01318														8.502267	4.218034	1.033671	0.320080	0.120776	0.939660	-0.859780	-0.379542	0.341653	0.397904	-0.917257	-0.017643
01319														8.429552	4.248875	0.916107	0.315310	0.121436	0.941187	-0.860973	-0.380522	0.337534	0.399131	-0.916764	-0.015429
01320														8.525874	4.343969	0.745359	0.310436	0.122777	0.942632	-0.861645	-0.382480	0.333582	0.401495	-0.915770	-0.012945
01321														8.844428	4.524629	0.409676	0.305419	0.124634	0.944026	-0.861778	-0.385528	0.329708	0.405042	-0.914240	-0.010341
01322														9.105927	4.850035	0.305269	0.300371	0.126691	0.945371	-0.861436	-0.389508	0.325901	0.409518	-0.912268	-0.007860
01323														9.233008	5.233540	0.466677	0.295523	0.128649	0.946634	-0.860575	-0.394412	0.322258	0.414822	-0.909884	-0.005846
01324														9.275883	5.326587	0.781399	0.291013	0.130875	0.947725	-0.858951	-0.400504	0.319061	0.421325	-0.906901	-0.004136
01325														9.483611	5.248028	1.203296	0.286845	0.133312	0.948656	-0.856177	-0.408555	0.316296	0.429744	-0.902946	-0.003053
01326														9.356783	4.846179	1.349080	0.282969	0.136282	0.949397	-0.851845	-0.419191	0.314067	0.440781	-0.897611	-0.002527
01327														9.065674	3.674158	0.996725	0.278877	0.140070	0.950057	-0.846229	-0.431866	0.312071	0.454009	-0.890995	-0.001906
01328														9.075731	2.271268	0.831228	0.274133	0.144009	0.950848	-0.839874	-0.445787	0.309655	0.468469	-0.883479	-0.001255
01329														9.156102	1.386900	1.032819	0.268508	0.147641	0.951896	-0.833425	-0.459901	0.306422	0.483018	-0.875610	-0.000439
01330														9.209435	1.052501	0.953727	0.262132	0.150847	0.953169	-0.827507	-0.473039	0.302436	0.496507	-0.868032	0.000828
01331														9.373197	1.075956	0.998531	0.255488	0.153617	0.954530	-0.822176	-0.484933	0.298105	0.508677	-0.860954	0.002406
01332														9.352416	1.325264	1.030118	0.248731	0.156139	0.955905	-0.817509	-0.495431	0.293644	0.519434	-0.854499	0.004416
01333														9.450311	1.611823	1.007826	0.242030	0.158294	0.957269	-0.813491	-0.504619	0.289122	0.528823	-0.848706	0.006637
01334														9.657589	1.838649	1.004588	0.235447	0.160023	0.958623	-0.809982	-0.512801	0.284541	0.537116	-0.843462	0.008878
01335														9.680189	1.926101	1.005594	0.228920	0.161309	0.959987	-0.806579	-0.520696	0.279832	0.545000	-0.838365	0.010911
01336														9.714739	1.769851	1.118043	0.222415	0.162212	0.961363	-0.802893	-0.528906	0.274995	0.553078	-0.833034	0.012602
01337														9.779150	1.459536	1.332052	0.215849	0.162688	0.962778	-0.798949	-0.537417	0.269931	0.561328	-0.827475	0.013978
01338														9.659545	1.298227	1.459112	0.209181	0.162695	0.964248	-0.795119	-0.545701	0.264566	0.569235	-0.822034	0.015212
01339														9.648633	1.160824	1.448739	0.202403	0.162319	0.965757	-0.791572	-0.553508	0.258927	0.576582	-0.816873	0.016455
01340														9.748029	1.042792	1.302240	0.195595	0.161715	0.967259	-0.788176	-0.560967	0.253169	0.583542	-0.811889	0.017737
01341														9.750345	1.050850	1.149822	0.188762	0.160892	0.968753	-0.785015	-0.567977	0.247291	0.590017	-0.807165	0.019090
01342														9.662173	1.250436	1.091332	0.181897	0.159772	0.970251	-0.782221	-0.574402	0.241233	0.595856	-0.802830	0.020495
01343														9.579218	1.566035	1.144024	0.175226	0.158283	0.971721	-0.779682	-0.580353	0.235129	0.601159	-0.798835	0.021717
01344														9.626926	1.705870	1.203959	0.168797	0.156644	0.973124	-0.776973	-0.586345	0.229157	0.606483	-0.794772	0.022735
01345														9.780583	1.547524	1.122261	0.162741	0.154877	0.974438	-0.773990	-0.592468	0.223431	0.611927	-0.790566	0.023454
01346														9.967060	1.312929	0.981947	0.157032	0.152839	0.975695	-0.770868	-0.598591	0.217833	0.617336	-0.786339	0.023821
01347														9.993699	1.156708	0.753228	0.151627	0.150361	0.976934	-0.767524	-0.604870	0.212222	0.622829	-0.782000	0.023691
01348														9.877270	1.131670	0.814677	0.146459	0.147424	0.978170	-0.764143	-0.611095	0.206514	0.628200	-0.777707	0.023153
01349														9.647909	1.250006	0.929346	0.141417	0.144117	0.979404	-0.760799	-0.617185	0.200669	0.633393	-0.773507	0.022364
01350														9.481476	1.355470	1.012069	0.136276	0.140696	0.980629	-0.757380	-0.623279	0.194677	0.638596	-0.769238	0.021622
01351														9.519706	1.293651	0.995455	0.130996	0.137147	0.981851	-0.753691	-0.629616	0.188502	0.644042	-0.764705	0.020890
01352														9.674934	1.154266	1.025439	0.125401	0.133538	0.983078	-0.749697	-0.636247	0.182057	0.649792	-0.759840	0.020327
01353														9.691252	0.938390	0.976540	0.119575	0.129900	0.984290	-0.745485	-0.643022	0.175426	0.655708	-0.754751	0.019949
01354														9.536641	0.798098	0.943110	0.113359	0.126359	0.985486	-0.741191	-0.649783	0.168573	0.661653	-0.749543	0.019997
01355														9.444101	0.728990	0.874223	0.106866	0.122824	0.986658	-0.736858	-0.656467	0.161530	0.667548	-0.744288	0.020350
01356														9.557706	0.714000	0.700332	0.100223	0.119386	0.987776	-0.732266	-0.663270	0.154463	0.673603	-0.738796	0.020948
01357														9.764541	0.824606	0.592201	0.093448	0.115812	0.988866	-0.727529	-0.670094	0.147230	0.679683	-0.733186	0.021637
01358														9.848145	1.041290	0.512191	0.086872	0.112067	0.989896	-0.722773	-0.676747	0.140045	0.685603	-0.727637	0.022209
01359														9.969559	1.214099	0.493928	0.080952	0.108225	0.990825	-0.717985	-0.683179	0.133283	0.691335	-0.722187	0.022399
01360														9.952177	1.374681	0.476380	0.075752	0.104417	0.991644	-0.713526	-0.689012	0.127057	0.696521	-0.717189	0.022310
01361														9.770640	1.566186	0.231248	0.071097	0.101013	0.992342	-0.709455	-0.694199	0.121493	0.701155	-0.712660	0.022309
01362														9.900467	1.581947	-0.058595	0.066768	0.098231	0.992921	-0.705925	-0.698626	0.116585	0.705133	-0.708712	0.022698
01363														10.203862	1.482915	0.123413	0.063187	0.095526	0.993419	-0.703301	-0.701977	0.112235	0.708079	-0.705764	0.022828
01364														10.020508	1.711878	0.647579	0.060691	0.093108	0.993805	-0.701803	-0.704011	0.108816	0.709782	-0.704059	0.022617
01365														9.636284	1.551727	1.124265	0.058212	0.090837	0.994163	-0.701313	-0.705006	0.105481	0.710473	-0.703360	0.022666
01366														9.277413	1.394237	1.150228	0.055329	0.089118	0.994483	-0.701070	-0.705725	0.102246	0.710943	-0.702859	0.023431
01367														9.514694	1.613061	0.992202	0.052052	0.087504	0.994803	-0.700646	-0.706634	0.098817	0.711608	-0.702148	0.024528
01368														9.823571	1.948895	0.878397	0.048446	0.085567	0.995154	-0.699878	-0.707924	0.094942	0.712617	-0.701086	0.025590
01369														10.061810	2.141720	0.770901	0.044896	0.083172	0.995523	-0.698687	-0.709642	0.090797	0.714017	-0.699636	0.026251
01370														10.099036	2.174509	0.764859	0.041325	0.080396	0.995906	-0.697076	-0.711775	0.086384	0.715806	-0.697792	0.026629
01371														9.929465	2.218951	0.727052	0.037927	0.077470	0.996273	-0.695008	-0.714311	0.082003	0.718001	-0.695528	0.026750
01372														9.863199	2.295408	0.853169	0.034649	0.074629	0.996609	-0.692424	-0.717286	0.077785	0.720659	-0.692771	0.026822
01373														10.034166	2.260082	0.991076	0.031508	0.071970	0.996909	-0.689370	-0.720639	0.073814	0.723724	-0.689565	0.026908
01374														10.102917	2.140891	1.128663	0.028514	0.069731	0.997158	-0.685852	-0.724341	0.070265	0.727183	-0.685906	0.027171
01375														9.931194	1.997516	1.167416	0.025715	0.068037	0.997351	-0.682092	-0.728167	0.067261	0.730814	-0.682015	0.027683
01376														9.606369	1.913344	0.878587	0.022966	0.066983	0.997490	-0.678160	-0.732054	0.064772	0.734555	-0.677945	0.028613
01377														9.679714	1.968690	0.613464	0.020456	0.066197	0.997597	-0.674232	-0.735857	0.062654	0.738236	-0.673893	0.029580
01378														9.947784	2.181286	0.591401	0.017881	0.065231	0.997710	-0.670694	-0.739274	0.060354	0.741518	-0.670237	0.030531
01379														9.923696	2.490957	0.626943	0.015439	0.063863	0.997839	-0.667306	-0.742534	0.057848	0.744624	-0.666757	0.031153
01380														9.843254	2.801762	0.763241	0.013088	0.062207	0.997977	-0.663611	-0.746038	0.055206	0.747963	-0.662991	0.031517
01381														9.772361	2.941119	0.761049	0.010855	0.060065	0.998135	-0.659339	-0.750024	0.052305	0.751768	-0.658677	0.031461
