// Start Time: Unknown
// Update Rate: 100.0Hz
// Filter Profile: human (46.1)
// Option Flags: AHS Disabled ICC Disabled 
// Firmware Version: 4.0.2
PacketCounter	SampleTimeFine	Year	Month	Day	Second	UTC_Nano	UTC_Year	UTC_Month	UTC_Day	UTC_Hour	UTC_Minute	UTC_Second	UTC_Valid	Acc_X	Acc_Y	Acc_Z	Mat[1][1]	Mat[2][1]	Mat[3][1]	Mat[1][2]	Mat[2][2]	Mat[3][2]	Mat[1][3]	Mat[2][3]	Mat[3][3]
00472														9.677005	1.691271	0.464370	-0.008759	-0.169778	0.985443	0.292138	0.942053	0.164900	-0.956336	0.289330	0.041347
00473														9.673666	1.655051	0.488607	-0.008712	-0.169485	0.985494	0.291852	0.942191	0.164617	-0.956424	0.289053	0.041256
00474														9.671235	1.617768	0.463946	-0.008630	-0.169218	0.985541	0.291574	0.942323	0.164351	-0.956509	0.288777	0.041207
00475														9.636404	1.619959	0.510655	-0.008663	-0.168912	0.985593	0.291295	0.942457	0.164080	-0.956594	0.288520	0.041039
00476														9.652360	1.598803	0.510015	-0.008600	-0.168642	0.985640	0.291117	0.942559	0.163811	-0.956649	0.288345	0.040989
00477														9.633037	1.581980	0.557999	-0.008547	-0.168328	0.985694	0.291023	0.942642	0.163500	-0.956678	0.288257	0.040930
00478														9.634409	1.578198	0.508654	-0.008447	-0.168059	0.985741	0.290991	0.942701	0.163214	-0.956688	0.288221	0.040940
00479														9.653723	1.591066	0.508417	-0.008353	-0.167760	0.985793	0.291035	0.942742	0.162900	-0.956676	0.288261	0.040949
00480														9.619835	1.591644	0.507657	-0.008219	-0.167466	0.985844	0.291077	0.942784	0.162578	-0.956664	0.288293	0.040996
00481														9.639180	1.604315	0.507657	-0.008117	-0.167170	0.985895	0.291140	0.942819	0.162263	-0.956646	0.288350	0.041017
00482														9.693310	1.613076	0.484221	-0.007951	-0.166911	0.985940	0.291219	0.942846	0.161965	-0.956623	0.288412	0.041111
00483														9.731943	1.641006	0.459902	-0.007863	-0.166670	0.985981	0.291118	0.942921	0.161712	-0.956655	0.288308	0.041107
00484														9.698454	1.641565	0.434327	-0.007775	-0.166407	0.986027	0.290949	0.943019	0.161443	-0.956707	0.288139	0.041084
00485														9.644264	1.629095	0.505947	-0.007751	-0.166131	0.986073	0.290727	0.943132	0.161181	-0.956775	0.287928	0.040989
00486														9.661004	1.606988	0.456938	-0.007691	-0.165923	0.986109	0.290513	0.943234	0.160974	-0.956840	0.287715	0.040949
00487														9.657401	1.571625	0.481314	-0.007676	-0.165719	0.986143	0.290365	0.943312	0.160782	-0.956885	0.287575	0.040878
00488														9.658134	1.569490	0.456197	-0.007631	-0.165543	0.986173	0.290314	0.943358	0.160602	-0.956901	0.287526	0.040861
00489														9.639022	1.553273	0.480206	-0.007596	-0.165373	0.986202	0.290322	0.943385	0.160429	-0.956899	0.287535	0.040846
00490														9.673615	1.548380	0.480581	-0.007554	-0.165197	0.986232	0.290409	0.943390	0.160246	-0.956873	0.287621	0.040848
00491														9.624571	1.568474	0.454327	-0.007535	-0.164988	0.986267	0.290579	0.943373	0.160033	-0.956821	0.287795	0.040834
00492														9.636349	1.514159	0.480024	-0.007501	-0.164799	0.986299	0.290765	0.943350	0.159834	-0.956765	0.287980	0.040841
00493														9.644511	1.579909	0.429341	-0.007481	-0.164604	0.986331	0.291018	0.943306	0.159631	-0.956688	0.288235	0.040846
00494														9.662789	1.595042	0.478172	-0.007403	-0.164456	0.986357	0.291261	0.943261	0.159457	-0.956615	0.288468	0.040917
00495														9.682340	1.608696	0.453916	-0.007375	-0.164349	0.986375	0.291461	0.943219	0.159337	-0.956554	0.288664	0.040945
00496														9.682026	1.608464	0.478481	-0.007316	-0.164255	0.986391	0.291675	0.943172	0.159222	-0.956489	0.288871	0.041009
00497														9.632820	1.629570	0.452796	-0.007298	-0.164182	0.986403	0.291902	0.943116	0.159137	-0.956420	0.289095	0.041043
00498														9.666745	1.626464	0.478085	-0.007279	-0.164176	0.986404	0.292146	0.943045	0.159115	-0.956346	0.289332	0.041099
00499														9.648732	1.609644	0.429522	-0.007268	-0.164114	0.986415	0.292436	0.942967	0.159040	-0.956257	0.289619	0.041140
00500														9.683150	1.605627	0.430467	-0.007222	-0.164042	0.986427	0.292688	0.942905	0.158947	-0.956181	0.289863	0.041203
00501														9.682808	1.605539	0.455096	-0.007192	-0.163948	0.986443	0.292924	0.942850	0.158839	-0.956109	0.290095	0.041243
00502														9.649047	1.607535	0.430350	-0.007095	-0.163843	0.986461	0.293112	0.942814	0.158702	-0.956052	0.290270	0.041335
00503														9.667730	1.622249	0.455120	-0.007021	-0.163675	0.986489	0.293266	0.942798	0.158513	-0.956005	0.290417	0.041381
00504														9.671517	1.654949	0.454687	-0.006907	-0.163499	0.986519	0.293399	0.942792	0.158307	-0.955965	0.290537	0.041458
00505														9.668736	1.618220	0.431087	-0.006869	-0.163282	0.986556	0.293479	0.942804	0.158084	-0.955941	0.290619	0.041444
00506														9.686663	1.633500	0.504061	-0.006777	-0.163073	0.986591	0.293502	0.942835	0.157857	-0.955935	0.290636	0.041473
00507														9.653560	1.633909	0.454207	-0.006738	-0.162841	0.986629	0.293454	0.942889	0.157626	-0.955950	0.290592	0.041433
00508														9.657463	1.666445	0.452497	-0.006747	-0.162624	0.986665	0.293328	0.942961	0.157427	-0.955988	0.290479	0.041340
00509														9.657376	1.665322	0.475686	-0.006748	-0.162391	0.986703	0.293180	0.943043	0.157210	-0.956034	0.290342	0.041246
00510														9.653257	1.630495	0.524568	-0.006656	-0.162205	0.986735	0.293029	0.943123	0.157012	-0.956080	0.290187	0.041254
00511														9.639054	1.646637	0.474412	-0.006629	-0.162003	0.986768	0.292808	0.943223	0.156822	-0.956148	0.289974	0.041183
00512														9.650698	1.592473	0.499812	-0.006522	-0.161834	0.986796	0.292577	0.943326	0.156638	-0.956220	0.289735	0.041196
00513														9.632020	1.575474	0.499573	-0.006438	-0.161626	0.986831	0.292366	0.943426	0.156424	-0.956285	0.289523	0.041180
00514														9.636313	1.607735	0.473807	-0.006374	-0.161479	0.986856	0.292043	0.943551	0.156279	-0.956384	0.289200	0.041145
00515														9.640164	1.640698	0.472441	-0.006275	-0.161286	0.986888	0.291751	0.943674	0.156079	-0.956474	0.288905	0.041134
00516														9.675226	1.634852	0.448438	-0.006159	-0.161105	0.986918	0.291456	0.943797	0.155885	-0.956565	0.288603	0.041142
00517														9.637139	1.603181	0.472439	-0.006095	-0.160900	0.986952	0.291090	0.943943	0.155686	-0.956676	0.288241	0.041083
00518														9.656815	1.616525	0.447164	-0.006017	-0.160755	0.986976	0.290648	0.944103	0.155544	-0.956811	0.287799	0.041043
00519														9.652555	1.582376	0.496016	-0.005951	-0.160573	0.987006	0.290156	0.944282	0.155372	-0.956961	0.287310	0.040972
00520														9.668107	1.562411	0.496148	-0.005842	-0.160473	0.987023	0.289633	0.944460	0.155267	-0.957120	0.286781	0.040961
00521														9.668251	1.561700	0.495578	-0.005768	-0.160355	0.987043	0.289123	0.944635	0.155155	-0.957274	0.286272	0.040914
00522														9.634940	1.563168	0.445597	-0.005651	-0.160272	0.987057	0.288657	0.944793	0.155062	-0.957416	0.285797	0.040925
00523														9.680639	1.506492	0.472205	-0.005587	-0.160189	0.987071	0.288220	0.944939	0.154983	-0.957548	0.285359	0.040890
00524														9.662202	1.489843	0.447588	-0.005479	-0.160102	0.987085	0.287825	0.945075	0.154886	-0.957667	0.284957	0.040903
00525														9.661883	1.489892	0.471639	-0.005419	-0.159982	0.987105	0.287479	0.945200	0.154769	-0.957772	0.284611	0.040869
00526														9.696354	1.485418	0.472131	-0.005303	-0.159875	0.987123	0.287186	0.945309	0.154645	-0.957860	0.284308	0.040901
00527														9.677531	1.469030	0.472177	-0.005219	-0.159727	0.987147	0.286940	0.945409	0.154491	-0.957934	0.284058	0.040898
00528														9.700352	1.517528	0.470944	-0.005083	-0.159602	0.987168	0.286672	0.945514	0.154343	-0.958015	0.283778	0.040947
00529														9.669912	1.554020	0.469175	-0.004972	-0.159401	0.987201	0.286472	0.945610	0.154129	-0.958076	0.283572	0.040962
00530														9.681831	1.499264	0.470767	-0.004931	-0.159248	0.987226	0.286203	0.945715	0.153981	-0.958156	0.283306	0.040914
00531														9.666735	1.516962	0.469171	-0.004872	-0.159067	0.987256	0.285939	0.945824	0.153803	-0.958236	0.283044	0.040875
00532														9.701284	1.511963	0.469642	-0.004760	-0.158922	0.987280	0.285734	0.945912	0.153641	-0.958297	0.282831	0.040907
00533														9.660240	1.445021	0.446439	-0.004727	-0.158785	0.987302	0.285542	0.945992	0.153508	-0.958354	0.282642	0.040868
00534														9.682189	1.495447	0.493348	-0.004695	-0.158667	0.987321	0.285391	0.946056	0.153392	-0.958400	0.282493	0.040841
00535														9.648913	1.496651	0.443186	-0.004691	-0.158559	0.987338	0.285281	0.946106	0.153292	-0.958433	0.282388	0.040796
00536														9.663404	1.479020	0.492549	-0.004659	-0.158528	0.987343	0.285258	0.946119	0.153255	-0.958439	0.282362	0.040813
00537														9.649008	1.496247	0.442485	-0.004685	-0.158487	0.987350	0.285275	0.946119	0.153223	-0.958434	0.282384	0.040780
00538														9.633199	1.516392	0.465835	-0.004644	-0.158537	0.987342	0.285363	0.946087	0.153255	-0.958408	0.282462	0.040846
00539														9.682744	1.494300	0.467752	-0.004659	-0.158565	0.987338	0.285562	0.946023	0.153277	-0.958349	0.282661	0.040872
00540														9.651532	1.533845	0.490475	-0.004640	-0.158646	0.987325	0.285750	0.945956	0.153341	-0.958293	0.282839	0.040943
00541														9.663909	1.479777	0.444117	-0.004652	-0.158725	0.987312	0.285986	0.945874	0.153411	-0.958222	0.283071	0.040993
00542														9.632625	1.519647	0.467110	-0.004622	-0.158836	0.987294	0.286219	0.945789	0.153499	-0.958153	0.283292	0.041091
00543														9.667193	1.516314	0.443999	-0.004636	-0.158940	0.987277	0.286465	0.945700	0.153591	-0.958080	0.283532	0.041146
00544														9.683188	1.497051	0.396581	-0.004636	-0.159091	0.987253	0.286706	0.945604	0.153726	-0.958007	0.283764	0.041228
00545														9.697375	1.481219	0.446620	-0.004674	-0.159199	0.987235	0.286934	0.945518	0.153831	-0.957939	0.283990	0.041260
00546														9.685930	1.534964	0.420674	-0.004631	-0.159325	0.987215	0.287177	0.945429	0.153928	-0.957866	0.284218	0.041376
00547														9.701005	1.517580	0.421863	-0.004725	-0.159477	0.987190	0.287349	0.945350	0.154093	-0.957814	0.284396	0.041359
00548														9.665021	1.525559	0.494337	-0.004738	-0.159649	0.987163	0.287582	0.945253	0.154251	-0.957744	0.284621	0.041433
00549														9.642558	1.476802	0.471658	-0.004758	-0.159800	0.987138	0.287847	0.945150	0.154390	-0.957665	0.284879	0.041501
00550														9.714556	1.505579	0.472815	-0.004721	-0.159975	0.987110	0.288109	0.945046	0.154536	-0.957586	0.285124	0.041629
00551														9.679917	1.510871	0.473015	-0.004695	-0.160141	0.987083	0.288375	0.944942	0.154676	-0.957506	0.285376	0.041745
00552														9.702653	1.561424	0.448480	-0.004638	-0.160321	0.987054	0.288671	0.944828	0.154819	-0.957417	0.285652	0.041898
00553														9.683356	1.547812	0.449570	-0.004634	-0.160491	0.987026	0.288873	0.944741	0.154971	-0.957356	0.285844	0.041983
00554														9.701546	1.565625	0.474939	-0.004530	-0.160661	0.986999	0.289118	0.944646	0.155094	-0.957283	0.286062	0.042171
00555														9.683187	1.550372	0.427256	-0.004548	-0.160836	0.986971	0.289256	0.944577	0.155260	-0.957241	0.286193	0.042227
00556														9.701404	1.568151	0.452009	-0.004511	-0.160958	0.986951	0.289389	0.944520	0.155361	-0.957201	0.286313	0.042319
00557														9.666382	1.573721	0.476188	-0.004487	-0.161058	0.986935	0.289490	0.944475	0.155446	-0.957170	0.286405	0.042387
00558														9.666155	1.574874	0.476977	-0.004399	-0.161185	0.986914	0.289606	0.944424	0.155536	-0.957136	0.286500	0.042526
00559														9.700731	1.571675	0.454209	-0.004366	-0.161288	0.986898	0.289726	0.944374	0.155620	-0.957100	0.286609	0.042606
00560														9.681582	1.557273	0.455074	-0.004285	-0.161374	0.986884	0.289823	0.944335	0.155675	-0.957071	0.286689	0.042724
00561														9.677384	1.524493	0.481067	-0.004264	-0.161423	0.986876	0.289887	0.944309	0.155713	-0.957051	0.286747	0.042768
00562														9.700282	1.573946	0.455939	-0.004189	-0.161456	0.986871	0.289946	0.944289	0.155720	-0.957034	0.286792	0.042858
00563														9.716048	1.554704	0.432746	-0.004177	-0.161488	0.986866	0.289910	0.944296	0.155749	-0.957045	0.286753	0.042873
00564														9.719097	1.590028	0.456357	-0.004080	-0.161466	0.986870	0.289907	0.944305	0.155700	-0.957046	0.286736	0.042957
00565														9.681721	1.558143	0.432186	-0.004089	-0.161379	0.986884	0.289833	0.944340	0.155623	-0.957068	0.286668	0.042912
00566														9.650128	1.596966	0.478746	-0.004030	-0.161271	0.986902	0.289755	0.944383	0.155506	-0.957092	0.286586	0.042923
00567														9.666156	1.576285	0.454916	-0.004019	-0.161129	0.986925	0.289708	0.944420	0.155369	-0.957107	0.286544	0.042884
00568														9.627959	1.545199	0.479323	-0.003944	-0.160989	0.986948	0.289711	0.944445	0.155214	-0.957106	0.286542	0.042916
00569														9.650184	1.594735	0.502521	-0.003919	-0.160892	0.986964	0.289837	0.944424	0.155108	-0.957068	0.286667	0.042931
00570														9.605114	1.649412	0.450873	-0.003915	-0.160832	0.986974	0.289994	0.944386	0.155042	-0.957020	0.286824	0.042943
00571														9.657958	1.661888	0.475875	-0.003914	-0.160815	0.986977	0.290148	0.944343	0.155019	-0.956974	0.286977	0.042964
00572														9.641593	1.682581	0.524023	-0.003865	-0.160831	0.986974	0.290316	0.944292	0.155012	-0.956923	0.287134	0.043042
00573														9.603581	1.652213	0.524735	-0.003829	-0.160872	0.986968	0.290381	0.944268	0.155039	-0.956904	0.287190	0.043098
00574														9.622403	1.668185	0.525238	-0.003730	-0.160939	0.986957	0.290415	0.944252	0.155072	-0.956894	0.287206	0.043217
00575														9.634016	1.615762	0.527878	-0.003686	-0.161030	0.986943	0.290381	0.944250	0.155149	-0.956904	0.287161	0.043279
00576														9.652746	1.632251	0.528484	-0.003559	-0.161153	0.986923	0.290261	0.944272	0.155235	-0.956941	0.287018	0.043416
00577														9.634040	1.617228	0.504955	-0.003510	-0.161257	0.986906	0.290173	0.944285	0.155325	-0.956968	0.286919	0.043478
00578														9.649166	1.599686	0.506307	-0.003461	-0.161406	0.986882	0.290061	0.944297	0.155459	-0.957002	0.286795	0.043549
00579														9.649374	1.600557	0.481941	-0.003495	-0.161545	0.986859	0.289908	0.944320	0.155608	-0.957048	0.286642	0.043532
00580														9.664518	1.583185	0.482599	-0.003511	-0.161650	0.986842	0.289839	0.944323	0.155716	-0.957069	0.286572	0.043537
00581														9.630487	1.587082	0.457172	-0.003533	-0.161721	0.986830	0.289812	0.944319	0.155791	-0.957077	0.286546	0.043533
00582														9.644719	1.570874	0.507021	-0.003492	-0.161819	0.986814	0.289845	0.944295	0.155872	-0.957067	0.286567	0.043604
00583														9.632212	1.625896	0.529678	-0.003477	-0.161878	0.986805	0.289882	0.944276	0.155923	-0.957056	0.286599	0.043643
00584														9.628990	1.591629	0.506722	-0.003424	-0.161969	0.986790	0.289869	0.944268	0.155995	-0.957060	0.286574	0.043717
00585														9.670257	1.657609	0.505642	-0.003400	-0.162017	0.986782	0.289843	0.944269	0.156036	-0.957068	0.286542	0.043749
00586														9.666036	1.625045	0.531647	-0.003292	-0.162137	0.986763	0.289734	0.944288	0.156124	-0.957102	0.286412	0.043868
00587														9.666340	1.625095	0.508079	-0.003185	-0.162196	0.986753	0.289610	0.944321	0.156156	-0.957139	0.286271	0.043966
00588														9.663145	1.590579	0.485781	-0.003037	-0.162277	0.986741	0.289508	0.944345	0.156196	-0.957171	0.286144	0.044113
00589														9.681415	1.607499	0.511040	-0.002920	-0.162340	0.986731	0.289357	0.944386	0.156229	-0.957217	0.285974	0.044217
00590														9.659791	1.556824	0.464424	-0.002801	-0.162436	0.986715	0.289255	0.944407	0.156292	-0.957248	0.285850	0.044340
00591														9.675069	1.538541	0.465934	-0.002768	-0.162449	0.986713	0.289202	0.944422	0.156298	-0.957264	0.285792	0.044366
00592														9.675011	1.538855	0.466108	-0.002730	-0.162461	0.986711	0.289260	0.944405	0.156296	-0.957247	0.285843	0.044416
00593														9.644671	1.576172	0.439373	-0.002816	-0.162451	0.986713	0.289276	0.944398	0.156310	-0.957242	0.285872	0.044334
00594														9.643630	1.578071	0.487982	-0.002743	-0.162437	0.986715	0.289405	0.944365	0.156270	-0.957203	0.285989	0.044420
00595														9.627690	1.597952	0.511503	-0.002780	-0.162431	0.986716	0.289495	0.944337	0.156271	-0.957176	0.286083	0.044398
00596														9.646581	1.613594	0.511411	-0.002718	-0.162440	0.986715	0.289572	0.944315	0.156258	-0.957152	0.286150	0.044472
00597														9.647530	1.612226	0.462884	-0.002708	-0.162472	0.986709	0.289582	0.944308	0.156285	-0.957149	0.286156	0.044492
00598														9.626970	1.599956	0.536260	-0.002676	-0.162506	0.986704	0.289540	0.944316	0.156310	-0.957162	0.286109	0.044525
00599														9.649845	1.649345	0.510610	-0.002647	-0.162530	0.986700	0.289460	0.944338	0.156328	-0.957187	0.286024	0.044546
00600														9.627297	1.600115	0.512130	-0.002581	-0.162575	0.986693	0.289403	0.944351	0.156355	-0.957204	0.285955	0.044612
00601														9.662042	1.596385	0.488658	-0.002582	-0.162613	0.986687	0.289276	0.944383	0.156398	-0.957242	0.285829	0.044602
00602														9.692263	1.559910	0.515291	-0.002479	-0.162632	0.986684	0.289245	0.944394	0.156389	-0.957252	0.285781	0.044700
00603														9.661334	1.598234	0.513672	-0.002460	-0.162691	0.986674	0.289192	0.944401	0.156441	-0.957268	0.285723	0.044726
00604														9.661163	1.599145	0.514040	-0.002388	-0.162786	0.986659	0.289171	0.944396	0.156513	-0.957275	0.285686	0.044818
00605														9.661499	1.599216	0.490135	-0.002358	-0.162861	0.986646	0.289173	0.944385	0.156576	-0.957274	0.285680	0.044868
00606														9.680240	1.615588	0.490467	-0.002300	-0.162955	0.986631	0.289222	0.944358	0.156647	-0.957259	0.285716	0.044959
00607														9.661159	1.600989	0.491058	-0.002277	-0.163004	0.986623	0.289241	0.944346	0.156686	-0.957253	0.285729	0.044997
00608														9.661028	1.601709	0.491283	-0.002243	-0.163064	0.986613	0.289228	0.944342	0.156735	-0.957257	0.285708	0.045045
00609														9.660929	1.602212	0.491595	-0.002175	-0.163076	0.986611	0.289167	0.944361	0.156730	-0.957276	0.285636	0.045102
00610														9.695201	1.599093	0.492686	-0.002127	-0.163099	0.986607	0.289034	0.944400	0.156745	-0.957316	0.285496	0.045132
00611														9.676717	1.583407	0.468174	-0.002160	-0.163139	0.986601	0.288870	0.944440	0.156800	-0.957366	0.285338	0.045086
00612														9.673121	1.549788	0.469100	-0.002104	-0.163177	0.986595	0.288684	0.944493	0.156830	-0.957422	0.285144	0.045119
00613														9.672514	1.551185	0.493514	-0.002068	-0.163190	0.986593	0.288540	0.944535	0.156838	-0.957466	0.284995	0.045133
00614														9.691359	1.567035	0.493424	-0.002011	-0.163217	0.986588	0.288426	0.944567	0.156853	-0.957500	0.284873	0.045176
00615														9.672355	1.552127	0.493679	-0.001988	-0.163251	0.986583	0.288318	0.944595	0.156884	-0.957533	0.284762	0.045190
00616														9.683661	1.500479	0.520328	-0.001962	-0.163294	0.986576	0.288204	0.944623	0.156923	-0.957567	0.284643	0.045209
00617														9.688119	1.533618	0.470042	-0.002003	-0.163322	0.986571	0.288186	0.944623	0.156962	-0.957572	0.284630	0.045175
00618														9.664575	1.486379	0.519890	-0.002022	-0.163355	0.986565	0.288226	0.944604	0.156998	-0.957560	0.284672	0.045173
00619														9.649643	1.504668	0.494052	-0.002077	-0.163321	0.986571	0.288360	0.944567	0.156974	-0.957520	0.284814	0.045134
00620														9.648587	1.506551	0.542740	-0.002054	-0.163308	0.986573	0.288617	0.944494	0.156944	-0.957442	0.285064	0.045193
00621														9.637179	1.558708	0.516233	-0.002075	-0.163263	0.986580	0.288906	0.944414	0.156892	-0.957355	0.285355	0.045208
00622														9.655053	1.575805	0.565052	-0.002046	-0.163240	0.986584	0.289190	0.944334	0.156849	-0.957270	0.285631	0.045276
00623														9.663610	1.641560	0.489720	-0.002064	-0.163209	0.986589	0.289515	0.944241	0.156809	-0.957171	0.285956	0.045302
00624														9.648165	1.660488	0.488852	-0.002075	-0.163212	0.986589	0.289818	0.944150	0.156801	-0.957080	0.286256	0.045343
00625														9.663560	1.641763	0.490030	-0.002093	-0.163204	0.986590	0.290062	0.944077	0.156786	-0.957006	0.286500	0.045364
00626														9.666433	1.677487	0.513142	-0.002124	-0.163257	0.986581	0.290138	0.944045	0.156843	-0.956982	0.286578	0.045362
00627														9.666892	1.677034	0.488544	-0.002141	-0.163234	0.986585	0.290255	0.944012	0.156820	-0.956947	0.286697	0.045359
00628														9.650898	1.697112	0.511607	-0.002171	-0.163250	0.986582	0.290283	0.944000	0.156843	-0.956938	0.286729	0.045340
00629														9.647374	1.663200	0.512353	-0.002204	-0.163243	0.986583	0.290282	0.944000	0.156846	-0.956939	0.286733	0.045306
00630														9.643855	1.629242	0.513218	-0.002200	-0.163257	0.986581	0.290257	0.944005	0.156859	-0.956946	0.286707	0.045310
00631														9.662701	1.645120	0.512830	-0.002211	-0.163270	0.986579	0.290239	0.944008	0.156875	-0.956952	0.286690	0.045300
00632														9.659662	1.610489	0.489427	-0.002214	-0.163318	0.986571	0.290197	0.944013	0.156924	-0.956964	0.286648	0.045305
00633														9.659015	1.612241	0.513511	-0.002258	-0.163370	0.986562	0.290188	0.944005	0.156987	-0.956967	0.286643	0.045277
00634														9.643973	1.630975	0.488040	-0.002224	-0.163419	0.986554	0.290246	0.943982	0.157022	-0.956950	0.286692	0.045333
00635														9.640901	1.596547	0.464767	-0.002283	-0.163479	0.986544	0.290236	0.943972	0.157096	-0.956952	0.286689	0.045293
00636														9.643761	1.632382	0.487521	-0.002299	-0.163465	0.986546	0.290302	0.943954	0.157084	-0.956932	0.286757	0.045284
00637														9.658709	1.614424	0.512393	-0.002356	-0.163402	0.986557	0.290317	0.943957	0.157039	-0.956928	0.286784	0.045215
00638														9.658785	1.614212	0.511624	-0.002382	-0.163333	0.986568	0.290283	0.943977	0.156982	-0.956938	0.286758	0.045164
00639														9.658347	1.614882	0.535302	-0.002412	-0.163264	0.986579	0.290227	0.944003	0.156928	-0.956955	0.286710	0.045107
00640														9.628080	1.651362	0.508133	-0.002414	-0.163178	0.986594	0.290131	0.944046	0.156850	-0.956984	0.286620	0.045064
00641														9.659102	1.612903	0.509778	-0.002370	-0.163058	0.986614	0.290040	0.944094	0.156727	-0.957012	0.286528	0.045056
00642														9.662705	1.646547	0.508141	-0.002353	-0.162974	0.986628	0.289886	0.944154	0.156650	-0.957058	0.286378	0.045023
00643														9.660364	1.609948	0.460033	-0.002343	-0.162903	0.986639	0.289685	0.944226	0.156588	-0.957119	0.286182	0.044978
00644														9.659403	1.611521	0.508445	-0.002283	-0.162846	0.986649	0.289506	0.944291	0.156524	-0.957173	0.285998	0.044989
00645														9.644040	1.630099	0.506976	-0.002272	-0.162773	0.986661	0.289260	0.944377	0.156464	-0.957248	0.285757	0.044938
00646														9.660035	1.610183	0.483046	-0.002249	-0.162751	0.986665	0.288982	0.944465	0.156449	-0.957332	0.285480	0.044909
00647														9.675507	1.591235	0.483576	-0.002217	-0.162685	0.986676	0.288683	0.944566	0.156390	-0.957422	0.285183	0.044870
00648														9.675547	1.591174	0.482972	-0.002205	-0.162659	0.986680	0.288386	0.944659	0.156376	-0.957512	0.284889	0.044826
00649														9.656112	1.577067	0.506658	-0.002260	-0.162651	0.986681	0.288076	0.944749	0.156398	-0.957605	0.284593	0.044721
00650														9.653123	1.542137	0.482950	-0.002211	-0.162651	0.986681	0.287844	0.944821	0.156395	-0.957675	0.284357	0.044729
00651														9.672005	1.557902	0.482210	-0.002245	-0.162639	0.986683	0.287599	0.944894	0.156405	-0.957748	0.284120	0.044654
00652														9.668516	1.523891	0.482861	-0.002242	-0.162623	0.986686	0.287410	0.944953	0.156398	-0.957805	0.283934	0.044621
00653														9.653604	1.541881	0.456772	-0.002251	-0.162583	0.986692	0.287219	0.945015	0.156371	-0.957862	0.283749	0.044570
00654														9.691930	1.571915	0.431378	-0.002237	-0.162584	0.986692	0.287040	0.945069	0.156376	-0.957916	0.283570	0.044554
00655														9.653570	1.542354	0.455892	-0.002242	-0.162572	0.986694	0.286922	0.945105	0.156371	-0.957951	0.283455	0.044527
00656														9.671940	1.559059	0.479753	-0.002216	-0.162567	0.986695	0.286835	0.945133	0.156363	-0.957978	0.283365	0.044535
00657														9.669007	1.523684	0.456297	-0.002242	-0.162497	0.986706	0.286688	0.945186	0.156311	-0.958021	0.283227	0.044466
00658														9.672014	1.558939	0.478665	-0.002234	-0.162462	0.986712	0.286556	0.945231	0.156281	-0.958061	0.283098	0.044443
00659														9.686998	1.540928	0.503549	-0.002276	-0.162378	0.986726	0.286491	0.945262	0.156215	-0.958080	0.283044	0.044368
00660														9.668165	1.525186	0.503270	-0.002244	-0.162326	0.986735	0.286384	0.945303	0.156162	-0.958112	0.282935	0.044366
00661														9.634912	1.526258	0.453049	-0.002291	-0.162252	0.986747	0.286291	0.945340	0.156108	-0.958140	0.282855	0.044285
00662														9.652340	1.544769	0.525343	-0.002272	-0.162221	0.986752	0.286221	0.945367	0.156076	-0.958161	0.282784	0.044283
00663														9.652865	1.543738	0.500548	-0.002301	-0.162190	0.986757	0.286165	0.945386	0.156057	-0.958177	0.282735	0.044238
00664														9.636910	1.563859	0.523513	-0.002259	-0.162190	0.986757	0.286072	0.945416	0.156050	-0.958205	0.282636	0.044262
00665														9.687686	1.539593	0.476506	-0.002295	-0.162170	0.986760	0.286035	0.945428	0.156042	-0.958216	0.282606	0.044217
00666														9.672221	1.558789	0.474961	-0.002292	-0.162182	0.986758	0.286009	0.945434	0.156054	-0.958224	0.282579	0.044219
00667														9.653721	1.542982	0.450538	-0.002340	-0.162244	0.986748	0.285972	0.945433	0.156129	-0.958235	0.282548	0.044185
00668														9.672479	1.559423	0.450029	-0.002340	-0.162318	0.986736	0.286000	0.945413	0.156199	-0.958227	0.282572	0.044210
00669														9.633510	1.531586	0.499349	-0.002362	-0.162366	0.986728	0.286055	0.945388	0.156248	-0.958210	0.282628	0.044212
00670														9.672733	1.559904	0.425686	-0.002341	-0.162413	0.986720	0.286141	0.945357	0.156283	-0.958185	0.282707	0.044260
00671														9.668653	1.527300	0.451670	-0.002360	-0.162451	0.986714	0.286268	0.945312	0.156319	-0.958147	0.282833	0.044273
00672														9.671501	1.563278	0.474854	-0.002314	-0.162492	0.986707	0.286370	0.945277	0.156341	-0.958116	0.282925	0.044346
00673														9.687398	1.543664	0.451660	-0.002353	-0.162473	0.986710	0.286424	0.945263	0.156331	-0.958100	0.282985	0.044312
00674														9.671927	1.562824	0.450080	-0.002383	-0.162477	0.986709	0.286479	0.945245	0.156341	-0.958084	0.283044	0.044293
00675														9.690826	1.578394	0.449431	-0.002394	-0.162428	0.986717	0.286496	0.945247	0.156297	-0.958078	0.283065	0.044272
00676														9.656516	1.581773	0.447943	-0.002449	-0.162386	0.986724	0.286450	0.945265	0.156274	-0.958092	0.283030	0.044201
00677														9.671497	1.563949	0.472728	-0.002487	-0.162329	0.986734	0.286457	0.945270	0.156229	-0.958090	0.283045	0.044150
00678														9.656601	1.581622	0.446649	-0.002503	-0.162289	0.986740	0.286471	0.945271	0.156196	-0.958086	0.283063	0.044125
00679														9.690988	1.578036	0.447190	-0.002498	-0.162233	0.986749	0.286488	0.945275	0.156140	-0.958081	0.283082	0.044117
00680														9.656679	1.581246	0.446298	-0.002452	-0.162199	0.986755	0.286496	0.945280	0.156093	-0.958078	0.283084	0.044152
00681														9.621852	1.585669	0.469671	-0.002477	-0.162158	0.986762	0.286513	0.945281	0.156060	-0.958073	0.283106	0.044118
00682														9.621876	1.585619	0.469348	-0.002476	-0.162123	0.986767	0.286559	0.945272	0.156025	-0.958059	0.283154	0.044117
00683														9.637834	1.565648	0.445870	-0.002500	-0.162096	0.986772	0.286613	0.945260	0.156003	-0.958043	0.283211	0.044096
00684														9.675125	1.597763	0.469490	-0.002483	-0.162091	0.986773	0.286660	0.945247	0.155991	-0.958029	0.283256	0.044118
00685														9.640757	1.601314	0.468654	-0.002469	-0.162076	0.986775	0.286697	0.945240	0.155971	-0.958018	0.283290	0.044133
00686														9.660138	1.615789	0.444017	-0.002440	-0.162074	0.986776	0.286715	0.945236	0.155960	-0.958013	0.283304	0.044163
00687														9.663560	1.650358	0.442439	-0.002455	-0.162073	0.986776	0.286706	0.945238	0.155964	-0.958016	0.283297	0.044147
00688														9.662999	1.651895	0.466485	-0.002468	-0.162092	0.986773	0.286634	0.945256	0.155989	-0.958037	0.283227	0.044128
00689														9.678860	1.632528	0.442907	-0.002488	-0.162124	0.986767	0.286562	0.945271	0.156029	-0.958059	0.283158	0.044107
00690														9.655927	1.584427	0.468737	-0.002496	-0.162134	0.986766	0.286471	0.945296	0.156045	-0.958086	0.283069	0.044087
00691														9.622004	1.587238	0.443391	-0.002454	-0.162173	0.986759	0.286356	0.945326	0.156076	-0.958120	0.282947	0.044120
00692														9.564711	1.542578	0.468729	-0.002437	-0.162202	0.986755	0.286206	0.945366	0.156105	-0.958165	0.282795	0.044120
00693														9.527799	1.510217	0.420550	-0.002417	-0.162283	0.986741	0.286072	0.945394	0.156184	-0.958205	0.282657	0.044140
00694														9.463951	1.396963	0.424605	-0.002446	-0.162507	0.986704	0.285932	0.945398	0.156413	-0.958247	0.282513	0.044154
00695														9.490477	1.329153	0.452880	-0.002544	-0.162851	0.986647	0.285926	0.945341	0.156770	-0.958248	0.282507	0.044158
00696														9.654253	1.249155	0.485052	-0.002639	-0.163361	0.986563	0.286224	0.945167	0.157272	-0.958159	0.282793	0.044264
00697														9.857627	1.238391	0.589034	-0.002699	-0.163845	0.986482	0.286936	0.944877	0.157719	-0.957946	0.283483	0.044463
00698														9.913515	1.289559	0.590120	-0.002740	-0.164363	0.986396	0.288024	0.944469	0.158177	-0.957619	0.284539	0.044753
00699														9.947571	1.482316	0.633859	-0.002754	-0.164642	0.986349	0.289448	0.943999	0.158381	-0.957190	0.285933	0.045056
00700														9.965552	1.652064	0.556560	-0.002698	-0.164754	0.986331	0.290858	0.943562	0.158405	-0.956762	0.287309	0.045374
00701														9.991216	1.734827	0.556259	-0.002610	-0.164492	0.986375	0.292140	0.943222	0.158069	-0.956372	0.288573	0.045594
00702														9.942626	1.751211	0.531731	-0.002465	-0.163905	0.986473	0.293185	0.943007	0.157416	-0.956053	0.289607	0.045730
00703														9.864252	1.801213	0.479491	-0.002307	-0.162960	0.986630	0.293879	0.942955	0.156433	-0.955840	0.290310	0.045715
00704														9.783615	1.813369	0.402731	-0.002114	-0.161763	0.986827	0.294073	0.943094	0.155224	-0.955781	0.290527	0.045576
00705														9.663465	1.950537	0.343567	-0.001876	-0.160485	0.987036	0.293723	0.943412	0.153950	-0.955889	0.290204	0.045368
00706														9.567526	1.981166	0.288243	-0.001647	-0.159193	0.987246	0.293085	0.943817	0.152678	-0.956085	0.289598	0.045103
00707														9.494918	2.060905	0.182282	-0.001455	-0.158151	0.987414	0.292340	0.944212	0.151662	-0.956313	0.288882	0.044860
00708														9.394311	2.062048	0.152800	-0.001284	-0.157363	0.987540	0.291722	0.944527	0.150889	-0.956502	0.288281	0.044693
00709														9.305349	2.011672	0.101995	-0.001207	-0.156874	0.987618	0.291274	0.944740	0.150419	-0.956639	0.287849	0.044553
00710														9.262899	1.947100	0.175586	-0.001202	-0.156733	0.987640	0.290927	0.944866	0.150299	-0.956745	0.287512	0.044462
00711														9.247373	1.812298	0.229191	-0.001183	-0.156884	0.987616	0.290550	0.944957	0.150455	-0.956859	0.287130	0.044465
00712														9.302681	1.709156	0.333135	-0.001065	-0.157300	0.987550	0.290100	0.945034	0.150840	-0.956996	0.286649	0.044626
00713														9.356655	1.610289	0.486539	-0.001025	-0.157887	0.987457	0.289577	0.945102	0.151416	-0.957154	0.286100	0.044752
00714														9.472908	1.588996	0.540389	-0.000946	-0.158564	0.987348	0.289121	0.945138	0.152062	-0.957292	0.285607	0.044950
00715														9.584389	1.536973	0.644733	-0.000970	-0.159394	0.987215	0.288745	0.945121	0.152881	-0.957405	0.285202	0.045108
00716														9.665426	1.523302	0.721936	-0.001098	-0.160317	0.987065	0.288452	0.945059	0.153816	-0.957494	0.284890	0.045206
00717														9.790203	1.417317	0.755436	-0.001215	-0.161283	0.986907	0.288294	0.944949	0.154781	-0.957541	0.284707	0.045348
00718														9.853892	1.385790	0.760638	-0.001205	-0.162228	0.986753	0.288174	0.944837	0.155689	-0.957577	0.284544	0.045612
00719														9.919379	1.349641	0.693595	-0.001086	-0.162985	0.986628	0.288074	0.944753	0.156384	-0.957608	0.284391	0.045925
00720														9.988691	1.345343	0.625548	-0.000842	-0.163471	0.986548	0.287952	0.944723	0.156786	-0.957644	0.284211	0.046277
00721														10.038517	1.324607	0.606541	-0.000533	-0.163604	0.986526	0.287755	0.944775	0.156836	-0.957704	0.283962	0.046574
00722														10.000729	1.292707	0.609735	-0.000164	-0.163381	0.986563	0.287383	0.944938	0.156535	-0.957816	0.283547	0.046798
00723														9.964544	1.255282	0.563007	0.000160	-0.162829	0.986654	0.286813	0.945209	0.155943	-0.957987	0.282960	0.046853
00724														9.893270	1.221093	0.562266	0.000388	-0.162014	0.986788	0.285963	0.945599	0.155139	-0.958241	0.282125	0.046697
00725														9.842849	1.197100	0.486623	0.000569	-0.161038	0.986948	0.285048	0.946029	0.154197	-0.958513	0.281239	0.046442
00726														9.742170	1.196028	0.432423	0.000686	-0.160064	0.987106	0.284235	0.946424	0.153270	-0.958754	0.280465	0.046145
00727														9.667458	1.279532	0.374104	0.000707	-0.159157	0.987253	0.283661	0.946734	0.152421	-0.958924	0.279937	0.045816
00728														9.604519	1.311150	0.318682	0.000656	-0.158430	0.987370	0.283424	0.946912	0.151750	-0.958994	0.279745	0.045524
00729														9.552588	1.292672	0.291117	0.000565	-0.157899	0.987455	0.283495	0.946969	0.151263	-0.958973	0.279853	0.045299
00730														9.491526	1.211591	0.340773	0.000429	-0.157632	0.987498	0.283870	0.946894	0.151027	-0.958863	0.280256	0.045153
00731														9.502949	1.158389	0.367291	0.000345	-0.157554	0.987510	0.284643	0.946676	0.150940	-0.958634	0.281036	0.045174
00732														9.497719	1.128132	0.442239	0.000225	-0.157667	0.987492	0.285781	0.946319	0.151028	-0.958295	0.282173	0.045271
00733														9.496973	1.130830	0.467500	0.000114	-0.157884	0.987458	0.287335	0.945822	0.151194	-0.957830	0.283714	0.045474
00734														9.509864	1.272632	0.512004	0.000041	-0.158229	0.987403	0.289293	0.945184	0.151451	-0.957241	0.285642	0.045813
00735														9.546128	1.462166	0.507309	-0.000048	-0.158580	0.987346	0.291573	0.944442	0.151703	-0.956549	0.287890	0.046193
00736														9.616005	1.649373	0.529327	-0.000086	-0.158980	0.987282	0.293982	0.943651	0.151980	-0.955811	0.290256	0.046656
00737														9.652983	1.836995	0.478552	-0.000137	-0.159333	0.987225	0.296455	0.942840	0.152210	-0.955047	0.292689	0.047105
00738														9.663402	1.941312	0.455635	-0.000132	-0.159643	0.987175	0.298707	0.942099	0.152393	-0.954345	0.294896	0.047562
00739														9.640089	2.047813	0.407453	-0.000091	-0.159872	0.987138	0.300485	0.941514	0.152511	-0.953787	0.296634	0.047953
00740														9.661502	2.099814	0.434875	-0.000008	-0.160062	0.987107	0.301707	0.941108	0.152605	-0.953401	0.297818	0.048285
00741														9.661173	2.100705	0.437874	0.000077	-0.160143	0.987094	0.302299	0.940915	0.152627	-0.953213	0.298385	0.048483
00742														9.644986	2.121184	0.462526	0.000117	-0.160230	0.987080	0.302236	0.940923	0.152702	-0.953233	0.298314	0.048537
00743														9.714742	2.153084	0.560169	0.000095	-0.160313	0.987066	0.301595	0.941109	0.152820	-0.953436	0.297679	0.048439
00744														9.672058	2.091402	0.607913	0.000016	-0.160414	0.987050	0.300455	0.941445	0.152998	-0.953796	0.296561	0.048212
00745														9.644758	2.011633	0.655499	-0.000111	-0.160556	0.987027	0.298952	0.941883	0.153246	-0.954268	0.295091	0.047894
00746														9.644795	1.860586	0.705887	-0.000236	-0.160740	0.986997	0.297128	0.942410	0.153550	-0.954838	0.293301	0.047538
00747														9.626515	1.693466	0.732619	-0.000307	-0.160903	0.986970	0.295285	0.942946	0.153818	-0.955409	0.291485	0.047223
00748														9.658669	1.502680	0.738169	-0.000296	-0.161028	0.986950	0.293391	0.943503	0.154027	-0.955992	0.289608	0.046965
00749														9.717861	1.393014	0.693424	-0.000155	-0.161071	0.986943	0.291562	0.944055	0.154117	-0.956552	0.287779	0.046815
00750														9.729781	1.340494	0.695541	0.000171	-0.160977	0.986958	0.289847	0.944599	0.154017	-0.957073	0.286041	0.046820
00751														9.710285	1.283860	0.576116	0.000597	-0.160754	0.986994	0.288230	0.945135	0.153762	-0.957561	0.284390	0.046898
00752														9.732308	1.290561	0.455132	0.001077	-0.160414	0.987049	0.286749	0.945649	0.153373	-0.958005	0.282870	0.047017
00753														9.735072	1.281516	0.359060	0.001554	-0.159979	0.987119	0.285508	0.946103	0.152883	-0.958375	0.281593	0.047146
00754														9.718985	1.256628	0.263318	0.001962	-0.159602	0.987180	0.284538	0.946465	0.152454	-0.958663	0.280591	0.047269
00755														9.721199	1.248976	0.191119	0.002206	-0.159271	0.987232	0.283952	0.946698	0.152097	-0.958836	0.279992	0.047314
00756														9.750553	1.170160	0.122646	0.002291	-0.159033	0.987271	0.283751	0.946797	0.151855	-0.958895	0.279791	0.047295
00757														9.705742	1.222708	0.069102	0.002208	-0.158891	0.987294	0.283909	0.946769	0.151735	-0.958849	0.279967	0.047202
00758														9.655471	1.246205	0.090077	0.002049	-0.158869	0.987298	0.284438	0.946611	0.151732	-0.958692	0.280514	0.047128
00759														9.645357	1.338373	0.157239	0.001781	-0.158898	0.987293	0.285334	0.946332	0.151791	-0.958427	0.281438	0.047024
00760														9.597270	1.400329	0.225382	0.001504	-0.159004	0.987277	0.286537	0.945949	0.151911	-0.958068	0.282663	0.046983
00761														9.563373	1.446244	0.344061	0.001197	-0.159154	0.987253	0.287867	0.945518	0.152077	-0.957670	0.284016	0.046947
00762														9.566757	1.524074	0.487149	0.000985	-0.159330	0.987225	0.289277	0.945062	0.152237	-0.957245	0.285432	0.047021
00763														9.601022	1.563100	0.633871	0.000889	-0.159412	0.987212	0.290657	0.944633	0.152275	-0.956827	0.286805	0.047174
00764														9.587853	1.618735	0.681881	0.000942	-0.159472	0.987202	0.291847	0.944268	0.152258	-0.956465	0.287969	0.047431
00765														9.646952	1.700817	0.731106	0.001105	-0.159428	0.987209	0.292825	0.943988	0.152120	-0.956165	0.288912	0.047728
00766														9.703189	1.746724	0.757841	0.001345	-0.159361	0.987219	0.293561	0.943787	0.151950	-0.955939	0.289605	0.048052
00767														9.703835	1.743862	0.736596	0.001621	-0.159243	0.987238	0.294080	0.943660	0.151731	-0.955779	0.290081	0.048360
00768														9.728148	1.788566	0.664456	0.001862	-0.159129	0.987256	0.294371	0.943600	0.151537	-0.955689	0.290338	0.048600
00769														9.779793	1.761182	0.595775	0.002127	-0.158988	0.987278	0.294592	0.943567	0.151314	-0.955621	0.290523	0.048844
00770														9.745673	1.762866	0.596657	0.002316	-0.158843	0.987301	0.294694	0.943568	0.151115	-0.955589	0.290602	0.048995
00771														9.671843	1.696816	0.525232	0.002397	-0.158749	0.987316	0.294712	0.943580	0.151001	-0.955583	0.290612	0.049047
00772														9.684323	1.642084	0.503976	0.002476	-0.158741	0.987317	0.294784	0.943563	0.150967	-0.955561	0.290672	0.049130
00773														9.626885	1.596997	0.529321	0.002473	-0.158734	0.987318	0.294866	0.943539	0.150957	-0.955536	0.290753	0.049138
00774														9.620919	1.526527	0.483388	0.002469	-0.158748	0.987316	0.294988	0.943500	0.150965	-0.955498	0.290874	0.049159
00775														9.585930	1.531421	0.507080	0.002504	-0.158767	0.987313	0.295134	0.943454	0.150965	-0.955453	0.291012	0.049220
00776														9.585834	1.531752	0.507894	0.002602	-0.158816	0.987305	0.295280	0.943406	0.150977	-0.955407	0.291139	0.049350
00777														9.601718	1.512062	0.485835	0.002696	-0.158843	0.987300	0.295473	0.943348	0.150964	-0.955347	0.291313	0.049477
00778														9.655475	1.523188	0.463579	0.002830	-0.158905	0.987290	0.295646	0.943292	0.150976	-0.955293	0.291462	0.049649
00779														9.685604	1.486392	0.491748	0.002942	-0.158877	0.987294	0.295911	0.943221	0.150902	-0.955211	0.291707	0.049788
00780														9.668390	1.507978	0.565329	0.003119	-0.158869	0.987295	0.296206	0.943140	0.150828	-0.955119	0.291972	0.049999
00781														9.707509	1.535903	0.517871	0.003256	-0.158776	0.987309	0.296524	0.943063	0.150682	-0.955020	0.292270	0.050151
00782														9.730736	1.583333	0.493288	0.003414	-0.158661	0.987327	0.296706	0.943033	0.150517	-0.954963	0.292432	0.050295
00783														9.698962	1.621597	0.540571	0.003529	-0.158467	0.987358	0.296750	0.943054	0.150296	-0.954949	0.292468	0.050354
00784														9.701624	1.655869	0.588557	0.003702	-0.158239	0.987394	0.296678	0.943119	0.150031	-0.954970	0.292383	0.050437
00785														9.716738	1.635819	0.614487	0.003830	-0.158017	0.987429	0.296442	0.943230	0.149794	-0.955043	0.292142	0.050456
00786														9.699310	1.616463	0.566190	0.004018	-0.157836	0.987457	0.296136	0.943360	0.149583	-0.955137	0.291820	0.050531
00787														9.681234	1.598353	0.542219	0.004166	-0.157652	0.987486	0.295649	0.943544	0.149389	-0.955288	0.291327	0.050540
00788														9.689632	1.509513	0.546207	0.004317	-0.157528	0.987505	0.295072	0.943745	0.149257	-0.955465	0.290741	0.050557
00789														9.681374	1.441977	0.597692	0.004442	-0.157370	0.987530	0.294486	0.943953	0.149101	-0.955645	0.290151	0.050536
00790														9.659577	1.390165	0.575069	0.004611	-0.157267	0.987545	0.294025	0.944116	0.148978	-0.955787	0.289676	0.050594
00791														9.636505	1.340464	0.601708	0.004787	-0.157120	0.987568	0.293711	0.944241	0.148804	-0.955882	0.289347	0.050668
00792														9.671601	1.334463	0.579019	0.004928	-0.156990	0.987588	0.293566	0.944311	0.148646	-0.955926	0.289190	0.050740
00793														9.648559	1.284480	0.605431	0.004996	-0.156805	0.987617	0.293574	0.944340	0.148449	-0.955923	0.289197	0.050751
00794														9.648810	1.282572	0.605482	0.005065	-0.156572	0.987654	0.293734	0.944329	0.148197	-0.955874	0.289357	0.050774
00795														9.668073	1.295801	0.605229	0.005097	-0.156343	0.987690	0.293956	0.944298	0.147957	-0.955805	0.289583	0.050771
00796														9.656696	1.346779	0.602198	0.005108	-0.156070	0.987733	0.294224	0.944258	0.147679	-0.955723	0.289860	0.050742
00797														9.664347	1.412974	0.598967	0.005129	-0.155816	0.987773	0.294554	0.944197	0.147413	-0.955621	0.290196	0.050739
00798														9.649291	1.430101	0.597556	0.005129	-0.155663	0.987797	0.294822	0.944138	0.147252	-0.955538	0.290470	0.050735
00799														9.656779	1.497649	0.594392	0.005104	-0.155553	0.987814	0.295036	0.944088	0.147143	-0.955472	0.290690	0.050712
00800														9.655070	1.459585	0.522471	0.005083	-0.155514	0.987821	0.295201	0.944043	0.147102	-0.955422	0.290858	0.050707
00801														9.708350	1.471571	0.523142	0.005045	-0.155546	0.987816	0.295336	0.943995	0.147137	-0.955380	0.290995	0.050701
00802														9.670881	1.440626	0.498894	0.004967	-0.155613	0.987806	0.295499	0.943932	0.147215	-0.955330	0.291164	0.050672
00803														9.704485	1.438879	0.523992	0.004913	-0.155629	0.987803	0.295714	0.943862	0.147235	-0.955264	0.291384	0.050659
00804														9.701392	1.404063	0.500584	0.004803	-0.155650	0.987801	0.295957	0.943780	0.147275	-0.955189	0.291639	0.050598
00805														9.686030	1.423465	0.498578	0.004684	-0.155623	0.987805	0.296260	0.943685	0.147268	-0.955096	0.291957	0.050525
00806														9.686055	1.423600	0.497716	0.004549	-0.155578	0.987813	0.296639	0.943570	0.147243	-0.954979	0.292354	0.050443
00807														9.670192	1.443394	0.519931	0.004417	-0.155474	0.987830	0.297058	0.943451	0.147161	-0.954849	0.292793	0.050352
00808														9.689952	1.456847	0.494496	0.004324	-0.155320	0.987855	0.297530	0.943325	0.147016	-0.954703	0.293281	0.050292
00809														9.689550	1.456778	0.518268	0.004247	-0.155174	0.987878	0.298004	0.943198	0.146874	-0.954555	0.293767	0.050249
00810														9.678100	1.508688	0.515275	0.004206	-0.154985	0.987908	0.298459	0.943084	0.146682	-0.954413	0.294233	0.050223
00811														9.659376	1.491726	0.515175	0.004192	-0.154794	0.987938	0.298807	0.943004	0.146486	-0.954304	0.294589	0.050206
00812														9.698241	1.519602	0.490257	0.004199	-0.154583	0.987971	0.299173	0.942922	0.146263	-0.954190	0.294960	0.050207
00813														9.705925	1.586099	0.487440	0.004224	-0.154328	0.988011	0.299458	0.942873	0.145997	-0.954100	0.295251	0.050197
00814														9.687294	1.568566	0.487415	0.004251	-0.154094	0.988047	0.299654	0.942848	0.145756	-0.954038	0.295453	0.050183
00815														9.694463	1.635954	0.508714	0.004270	-0.153820	0.988090	0.299749	0.942860	0.145484	-0.954009	0.295557	0.050133
00816														9.656845	1.603158	0.508446	0.004278	-0.153589	0.988126	0.299786	0.942883	0.145258	-0.953997	0.295605	0.050078
00817														9.652902	1.567981	0.533540	0.004306	-0.153364	0.988160	0.299738	0.942932	0.145038	-0.954012	0.295564	0.050029
00818														9.637939	1.585108	0.531687	0.004327	-0.153134	0.988196	0.299620	0.943004	0.144819	-0.954049	0.295456	0.049962
00819														9.633955	1.550168	0.556668	0.004349	-0.152942	0.988226	0.299463	0.943081	0.144637	-0.954098	0.295308	0.049902
00820														9.637924	1.583224	0.554462	0.004342	-0.152786	0.988250	0.299256	0.943167	0.144501	-0.954163	0.295113	0.049817
00821														9.633808	1.549131	0.579302	0.004333	-0.152670	0.988268	0.299065	0.943243	0.144404	-0.954223	0.294930	0.049745
00822														9.649818	1.528491	0.555450	0.004352	-0.152575	0.988282	0.298912	0.943305	0.144315	-0.954271	0.294782	0.049712
00823														9.649337	1.529050	0.579457	0.004386	-0.152499	0.988294	0.298731	0.943374	0.144242	-0.954327	0.294602	0.049693
00824														9.681138	1.488700	0.532803	0.004420	-0.152458	0.988300	0.298541	0.943440	0.144203	-0.954387	0.294411	0.049685
00825														9.662112	1.473490	0.532821	0.004445	-0.152453	0.988301	0.298343	0.943503	0.144201	-0.954448	0.294212	0.049677
00826														9.712258	1.449998	0.510689	0.004514	-0.152462	0.988299	0.298184	0.943554	0.144197	-0.954498	0.294044	0.049721
00827														9.674716	1.418749	0.487086	0.004576	-0.152506	0.988292	0.298015	0.943602	0.144230	-0.954550	0.293866	0.049767
00828														9.709520	1.414634	0.463683	0.004566	-0.152538	0.988287	0.297819	0.943657	0.144274	-0.954611	0.293672	0.049738
00829														9.705726	1.380925	0.464765	0.004560	-0.152548	0.988285	0.297666	0.943702	0.144293	-0.954659	0.293521	0.049711
00830														9.689821	1.401293	0.487602	0.004561	-0.152523	0.988289	0.297567	0.943737	0.144274	-0.954690	0.293425	0.049690
00831														9.706881	1.379104	0.415197	0.004524	-0.152488	0.988295	0.297494	0.943763	0.144255	-0.954713	0.293359	0.049634
00832														9.708313	1.417767	0.510460	0.004461	-0.152418	0.988306	0.297436	0.943788	0.144209	-0.954731	0.293315	0.049545
00833														9.724876	1.396244	0.461791	0.004380	-0.152306	0.988324	0.297351	0.943827	0.144131	-0.954758	0.293248	0.049423
00834														9.705399	1.381543	0.485348	0.004334	-0.152205	0.988339	0.297331	0.943845	0.144049	-0.954764	0.293240	0.049346
00835														9.689089	1.402204	0.531762	0.004252	-0.152079	0.988359	0.297210	0.943897	0.143959	-0.954803	0.293138	0.049213
00836														9.689810	1.400488	0.506290	0.004221	-0.151969	0.988376	0.297149	0.943931	0.143866	-0.954822	0.293087	0.049141
00837														9.669215	1.387823	0.578864	0.004184	-0.151835	0.988397	0.297110	0.943961	0.143751	-0.954834	0.293061	0.049061
00838														9.673104	1.421327	0.576749	0.004185	-0.151724	0.988414	0.297128	0.943971	0.143644	-0.954829	0.293084	0.049032
00839														9.708689	1.414632	0.528619	0.004184	-0.151618	0.988430	0.297198	0.943965	0.143539	-0.954807	0.293159	0.049010
00840														9.674474	1.417745	0.527417	0.004182	-0.151545	0.988442	0.297309	0.943941	0.143465	-0.954772	0.293272	0.049003
00841														9.677158	1.453803	0.574545	0.004187	-0.151466	0.988454	0.297407	0.943923	0.143382	-0.954742	0.293372	0.048999
00842														9.677801	1.452161	0.550230	0.004240	-0.151398	0.988464	0.297453	0.943921	0.143300	-0.954727	0.293414	0.049036
00843														9.678398	1.450830	0.525915	0.004247	-0.151379	0.988467	0.297426	0.943933	0.143281	-0.954736	0.293387	0.049033
00844														9.694832	1.429549	0.478248	0.004255	-0.151334	0.988474	0.297429	0.943938	0.143235	-0.954735	0.293391	0.049028
00845														9.694288	1.430584	0.502404	0.004250	-0.151298	0.988479	0.297392	0.943955	0.143204	-0.954746	0.293357	0.049007
00846														9.660566	1.433196	0.476505	0.004205	-0.151257	0.988486	0.297292	0.943989	0.143183	-0.954777	0.293267	0.048937
00847														9.694352	1.430601	0.501110	0.004171	-0.151198	0.988495	0.297209	0.944022	0.143141	-0.954803	0.293193	0.048874
00848														9.690071	1.397488	0.526256	0.004118	-0.151167	0.988500	0.297129	0.944049	0.143131	-0.954828	0.293123	0.048803
00849														9.694393	1.430849	0.499607	0.004075	-0.151142	0.988504	0.297029	0.944081	0.143125	-0.954860	0.293031	0.048741
00850														9.709140	1.413092	0.524425	0.004017	-0.151084	0.988513	0.296963	0.944107	0.143090	-0.954880	0.292977	0.048659
00851														9.691264	1.395638	0.474986	0.003929	-0.151058	0.988517	0.296943	0.944113	0.143093	-0.954887	0.292971	0.048565
00852														9.679157	1.450323	0.496059	0.003937	-0.151050	0.988518	0.296944	0.944114	0.143082	-0.954887	0.292972	0.048571
00853														9.697618	1.466910	0.519922	0.003917	-0.151022	0.988523	0.296908	0.944129	0.143063	-0.954898	0.292940	0.048538
00854														9.729283	1.426862	0.473347	0.003906	-0.151031	0.988521	0.296881	0.944135	0.143076	-0.954906	0.292915	0.048526
00855														9.690617	1.397873	0.497992	0.003878	-0.151036	0.988521	0.296827	0.944149	0.143093	-0.954923	0.292865	0.048493
00856														9.675236	1.417544	0.496684	0.003910	-0.151108	0.988510	0.296774	0.944157	0.143154	-0.954940	0.292804	0.048537
00857														9.675094	1.418455	0.496863	0.003913	-0.151174	0.988499	0.296721	0.944164	0.143219	-0.954956	0.292748	0.048551
00858														9.690214	1.400598	0.498182	0.003896	-0.151281	0.988483	0.296710	0.944151	0.143327	-0.954960	0.292735	0.048566
00859														9.675337	1.419373	0.472712	0.003925	-0.151319	0.988477	0.296712	0.944146	0.143355	-0.954959	0.292730	0.048604
00860														9.698528	1.468628	0.446499	0.003894	-0.151396	0.988466	0.296653	0.944151	0.143440	-0.954977	0.292673	0.048589
00861														9.656051	1.405928	0.472866	0.003878	-0.151456	0.988456	0.296609	0.944156	0.143504	-0.954991	0.292628	0.048585
00862														9.689683	1.404328	0.498014	0.003853	-0.151510	0.988448	0.296538	0.944168	0.143567	-0.955013	0.292559	0.048566
00863														9.705993	1.383827	0.450333	0.003844	-0.151559	0.988441	0.296476	0.944180	0.143620	-0.955033	0.292497	0.048563
00864														9.670997	1.389539	0.473634	0.003838	-0.151618	0.988432	0.296396	0.944195	0.143682	-0.955057	0.292416	0.048563
00865														9.686179	1.371460	0.474716	0.003803	-0.151672	0.988424	0.296360	0.944197	0.143745	-0.955069	0.292383	0.048541
00866														9.685496	1.373658	0.498625	0.003725	-0.151735	0.988414	0.296347	0.944188	0.143829	-0.955073	0.292378	0.048484
00867														9.693971	1.440556	0.446002	0.003665	-0.151719	0.988417	0.296337	0.944191	0.143832	-0.955076	0.292377	0.048420
00868														9.696517	1.477720	0.492513	0.003612	-0.151738	0.988414	0.296295	0.944199	0.143867	-0.955090	0.292342	0.048370
00869														9.677991	1.461927	0.467715	0.003530	-0.151763	0.988411	0.296221	0.944214	0.143919	-0.955113	0.292280	0.048288
00870														9.658293	1.448891	0.491764	0.003483	-0.151857	0.988396	0.296130	0.944226	0.144028	-0.955141	0.292192	0.048258
00871														9.691315	1.448915	0.541308	0.003484	-0.151947	0.988383	0.296042	0.944240	0.144117	-0.955169	0.292101	0.048272
00872														9.688516	1.413599	0.494469	0.003524	-0.152094	0.988360	0.295920	0.944258	0.144252	-0.955206	0.291967	0.048335
00873														9.674061	1.431761	0.444888	0.003548	-0.152240	0.988337	0.295816	0.944269	0.144390	-0.955238	0.291853	0.048385
00874														9.673263	1.434374	0.469885	0.003635	-0.152352	0.988320	0.295698	0.944293	0.144478	-0.955275	0.291719	0.048482
00875														9.688368	1.416637	0.471880	0.003687	-0.152469	0.988301	0.295557	0.944321	0.144581	-0.955318	0.291567	0.048545
00876														9.707690	1.432141	0.448007	0.003786	-0.152623	0.988277	0.295442	0.944338	0.144706	-0.955353	0.291431	0.048666
00877														9.722786	1.414520	0.450013	0.003806	-0.152718	0.988262	0.295345	0.944354	0.144796	-0.955383	0.291328	0.048699
00878														9.704157	1.399325	0.426153	0.003802	-0.152851	0.988242	0.295265	0.944359	0.144928	-0.955408	0.291242	0.048722
00879														9.738845	1.395947	0.402655	0.003754	-0.152949	0.988227	0.295185	0.944367	0.145040	-0.955433	0.291165	0.048693
00880														9.664650	1.373872	0.475232	0.003732	-0.153028	0.988215	0.295142	0.944368	0.145124	-0.955446	0.291122	0.048690
00881														9.648041	1.396116	0.522864	0.003796	-0.153064	0.988209	0.295090	0.944381	0.145142	-0.955462	0.291060	0.048753
00882														9.662119	1.380023	0.573879	0.003943	-0.153100	0.988203	0.295052	0.944394	0.145135	-0.955473	0.290999	0.048897
00883														9.662615	1.378825	0.550815	0.004090	-0.153102	0.988202	0.295065	0.944396	0.145094	-0.955468	0.290991	0.049038
00884														9.700536	1.409195	0.551916	0.004323	-0.153092	0.988202	0.295204	0.944366	0.145010	-0.955424	0.291095	0.049276
00885														9.681482	1.393360	0.554638	0.004585	-0.153097	0.988200	0.295319	0.944342	0.144932	-0.955388	0.291169	0.049542
00886														9.644008	1.360883	0.533884	0.004933	-0.153115	0.988196	0.295481	0.944305	0.144839	-0.955336	0.291279	0.049901
00887														9.678170	1.357007	0.538458	0.005271	-0.153211	0.988179	0.295725	0.944232	0.144820	-0.955259	0.291466	0.050286
00888														9.697531	1.371271	0.517766	0.005645	-0.153342	0.988157	0.296106	0.944113	0.144816	-0.955138	0.291782	0.050735
00889														9.683178	1.388184	0.471606	0.005927	-0.153487	0.988133	0.296538	0.943972	0.144849	-0.955003	0.292161	0.051110
00890														9.664557	1.372221	0.451179	0.006225	-0.153633	0.988108	0.296997	0.943824	0.144877	-0.954858	0.292563	0.051504
00891														9.698651	1.369039	0.455826	0.006484	-0.153736	0.988091	0.297527	0.943658	0.144870	-0.954691	0.293044	0.051860
00892														9.686743	1.422809	0.456096	0.006693	-0.153880	0.988067	0.298055	0.943484	0.144918	-0.954525	0.293528	0.052180
00893														9.719510	1.422387	0.508726	0.006837	-0.154010	0.988046	0.298646	0.943290	0.144967	-0.954340	0.294085	0.052444
00894														9.724202	1.455370	0.460571	0.006894	-0.154168	0.988021	0.299253	0.943082	0.145067	-0.954149	0.294668	0.052637
00895														9.704324	1.442343	0.486543	0.006868	-0.154267	0.988005	0.299884	0.942871	0.145135	-0.953951	0.295290	0.052738
00896														9.704802	1.442153	0.462912	0.006811	-0.154351	0.987993	0.300493	0.942667	0.145199	-0.953760	0.295896	0.052802
00897														9.688656	1.463085	0.486331	0.006714	-0.154402	0.987985	0.301103	0.942466	0.145242	-0.953568	0.296511	0.052819
00898														9.692788	1.497214	0.460612	0.006609	-0.154493	0.987972	0.301726	0.942254	0.145326	-0.953372	0.297137	0.052842
00899														9.671700	1.486069	0.534250	0.006535	-0.154540	0.987965	0.302400	0.942033	0.145355	-0.953159	0.297811	0.052889
00900														9.656824	1.504809	0.509322	0.006483	-0.154666	0.987946	0.303162	0.941774	0.145448	-0.952917	0.298565	0.052995
00901														9.644184	1.560364	0.532003	0.006415	-0.154792	0.987926	0.303946	0.941506	0.145545	-0.952668	0.299343	0.053088
00902														9.629189	1.579577	0.507712	0.006412	-0.154961	0.987900	0.304742	0.941230	0.145663	-0.952413	0.300120	0.053258
00903														9.628840	1.581163	0.509398	0.006404	-0.155156	0.987869	0.305493	0.940964	0.145808	-0.952173	0.300853	0.053424
00904														9.663417	1.578534	0.487741	0.006386	-0.155393	0.987832	0.306207	0.940703	0.145999	-0.951944	0.301549	0.053590
00905														9.648251	1.598726	0.463783	0.006369	-0.155644	0.987793	0.306860	0.940458	0.146207	-0.951733	0.302183	0.053751
00906														9.647765	1.601199	0.465351	0.006361	-0.155916	0.987750	0.307391	0.940248	0.146438	-0.951562	0.302694	0.053908
00907														9.682935	1.598273	0.418922	0.006318	-0.156165	0.987711	0.307827	0.940070	0.146664	-0.951421	0.303118	0.054012
00908														9.681172	1.602590	0.468662	0.006304	-0.156380	0.987677	0.308128	0.939942	0.146855	-0.951324	0.303405	0.054110
00909														9.680798	1.604629	0.469422	0.006278	-0.156555	0.987649	0.308356	0.939842	0.147017	-0.951250	0.303624	0.054175
00910														9.672741	1.538656	0.496877	0.006267	-0.156693	0.987628	0.308525	0.939767	0.147142	-0.951196	0.303786	0.054233
00911														9.672483	1.540082	0.497483	0.006283	-0.156818	0.987608	0.308681	0.939699	0.147247	-0.951145	0.303931	0.054311
00912														9.655484	1.562226	0.546021	0.006351	-0.156956	0.987585	0.308804	0.939642	0.147351	-0.951105	0.304034	0.054437
00913														9.671294	1.543679	0.523733	0.006368	-0.157082	0.987565	0.308960	0.939575	0.147456	-0.951054	0.304179	0.054515
00914														9.669721	1.546677	0.573439	0.006448	-0.157173	0.987550	0.309082	0.939526	0.147512	-0.951014	0.304283	0.054637
00915														9.632970	1.514963	0.526316	0.006582	-0.157325	0.987525	0.309215	0.939467	0.147608	-0.950969	0.304386	0.054830
00916														9.684573	1.530089	0.577773	0.006685	-0.157474	0.987500	0.309320	0.939416	0.147712	-0.950934	0.304466	0.054990
00917														9.646461	1.500330	0.579496	0.006809	-0.157586	0.987482	0.309479	0.939354	0.147771	-0.950882	0.304599	0.055165
00918														9.680530	1.497947	0.582207	0.006915	-0.157737	0.987457	0.309627	0.939289	0.147874	-0.950833	0.304720	0.055334
00919														9.684427	1.532702	0.557991	0.006980	-0.157891	0.987432	0.309776	0.939222	0.147992	-0.950784	0.304850	0.055467
00920														9.661007	1.485381	0.584980	0.007061	-0.158060	0.987404	0.309901	0.939160	0.148121	-0.950743	0.304951	0.055615
00921														9.681036	1.500269	0.537438	0.007149	-0.158181	0.987384	0.309951	0.939130	0.148206	-0.950726	0.304981	0.055742
00922														9.699020	1.517656	0.563004	0.007253	-0.158280	0.987368	0.310015	0.939100	0.148265	-0.950704	0.305024	0.055881
00923														9.649738	1.540105	0.537341	0.007299	-0.158400	0.987348	0.310055	0.939071	0.148363	-0.950691	0.305050	0.055967
00924														9.661440	1.488109	0.540680	0.007364	-0.158524	0.987328	0.310185	0.939014	0.148453	-0.950648	0.305161	0.056086
00925														9.675894	1.471482	0.567378	0.007419	-0.158675	0.987303	0.310361	0.938937	0.148570	-0.950590	0.305318	0.056213
00926														9.675581	1.473015	0.568744	0.007504	-0.158856	0.987273	0.310564	0.938849	0.148704	-0.950523	0.305496	0.056380
00927														9.637455	1.443570	0.570532	0.007617	-0.159017	0.987246	0.310832	0.938744	0.148807	-0.950434	0.305734	0.056578
00928														9.674919	1.475987	0.572293	0.007714	-0.159218	0.987213	0.311085	0.938637	0.148953	-0.950351	0.305958	0.056771
00929														9.680760	1.547077	0.596144	0.007826	-0.159379	0.987186	0.311397	0.938517	0.149053	-0.950248	0.306241	0.056975
00930														9.661549	1.532758	0.598337	0.007991	-0.159529	0.987161	0.311707	0.938403	0.149127	-0.950145	0.306513	0.057225
00931														9.663935	1.569205	0.623683	0.008098	-0.159701	0.987132	0.311993	0.938290	0.149240	-0.950050	0.306770	0.057423
00932														9.660948	1.534938	0.602443	0.008254	-0.159796	0.987115	0.312249	0.938200	0.149267	-0.949964	0.306994	0.057640
00933														9.660748	1.535362	0.604561	0.008444	-0.159869	0.987102	0.312436	0.938138	0.149266	-0.949901	0.307146	0.057870
00934														9.642451	1.519101	0.582406	0.008671	-0.159909	0.987094	0.312548	0.938107	0.149228	-0.949862	0.307221	0.058114
00935														9.671723	1.482962	0.635974	0.008949	-0.159932	0.987087	0.312584	0.938106	0.149162	-0.949848	0.307212	0.058388
00936														9.655385	1.502380	0.661932	0.009262	-0.159961	0.987080	0.312591	0.938114	0.149093	-0.949843	0.307171	0.058691
00937														9.675647	1.515737	0.616345	0.009605	-0.160021	0.987067	0.312701	0.938086	0.149037	-0.949803	0.307225	0.059049
00938														9.677026	1.513767	0.570766	0.009883	-0.160082	0.987054	0.312877	0.938034	0.148999	-0.949742	0.307354	0.059357
00939														9.659802	1.534660	0.621236	0.010136	-0.160199	0.987033	0.313022	0.937982	0.149024	-0.949692	0.307452	0.059654
00940														9.695475	1.529809	0.576714	0.010428	-0.160290	0.987015	0.313200	0.937924	0.149009	-0.949630	0.307579	0.059984
00941														9.655894	1.500776	0.628484	0.010715	-0.160369	0.986999	0.313336	0.937883	0.148987	-0.949582	0.307666	0.060299
00942														9.634170	1.450024	0.608393	0.011045	-0.160434	0.986985	0.313497	0.937837	0.148936	-0.949525	0.307772	0.060654
00943														9.672575	1.479834	0.587701	0.011403	-0.160500	0.986970	0.313689	0.937782	0.148877	-0.949457	0.307904	0.061041
00944														9.671578	1.480353	0.615832	0.011766	-0.160551	0.986957	0.313936	0.937712	0.148798	-0.949371	0.308090	0.061435
00945														9.653360	1.463508	0.595075	0.012115	-0.160592	0.986946	0.314189	0.937640	0.148712	-0.949283	0.308286	0.061816
00946														9.655844	1.498151	0.621726	0.012405	-0.160611	0.986940	0.314500	0.937551	0.148621	-0.949177	0.308548	0.062142
00947														9.671185	1.478505	0.626352	0.012750	-0.160617	0.986934	0.314887	0.937441	0.148494	-0.949043	0.308880	0.062528
00948														9.686527	1.458728	0.631180	0.013077	-0.160623	0.986929	0.315262	0.937334	0.148375	-0.948915	0.309201	0.062896
00949														9.649513	1.426039	0.610036	0.013393	-0.160621	0.986925	0.315684	0.937212	0.148246	-0.948770	0.309572	0.063257
00950														9.637445	1.478326	0.611363	0.013722	-0.160634	0.986919	0.316167	0.937069	0.148124	-0.948604	0.309999	0.063645
00951														9.670021	1.437737	0.568601	0.014041	-0.160585	0.986922	0.316661	0.936930	0.147945	-0.948435	0.310442	0.064007
00952														9.688916	1.451857	0.572190	0.014343	-0.160550	0.986924	0.317177	0.936781	0.147783	-0.948258	0.310910	0.064359
00953														9.691449	1.485933	0.598994	0.014629	-0.160554	0.986919	0.317761	0.936603	0.147659	-0.948058	0.311444	0.064719
00954														9.673310	1.469109	0.578095	0.014925	-0.160633	0.986901	0.318372	0.936405	0.147599	-0.947848	0.311999	0.065116
00955														9.706562	1.466162	0.607438	0.015157	-0.160685	0.986889	0.319055	0.936183	0.147528	-0.947615	0.312636	0.065457
00956														9.667666	1.435795	0.634861	0.015414	-0.160779	0.986870	0.319775	0.935944	0.147487	-0.947368	0.313303	0.065840
00957														9.668355	1.435018	0.614046	0.015636	-0.160880	0.986850	0.320568	0.935677	0.147459	-0.947096	0.314047	0.066204
00958														9.651758	1.454630	0.641055	0.015895	-0.160993	0.986827	0.321482	0.935370	0.147420	-0.946782	0.314904	0.066624
00959														9.653329	1.453397	0.596325	0.016123	-0.161152	0.986798	0.322466	0.935030	0.147429	-0.946444	0.315832	0.067041
00960														9.637612	1.472534	0.599189	0.016355	-0.161271	0.986775	0.323454	0.934693	0.147399	-0.946102	0.316766	0.067451
00961														9.687111	1.450285	0.605746	0.016590	-0.161397	0.986750	0.324501	0.934335	0.147368	-0.945740	0.317756	0.067874
00962														9.653482	1.453002	0.584186	0.016858	-0.161505	0.986728	0.325600	0.933962	0.147306	-0.945357	0.318795	0.068331
00963														9.675575	1.502542	0.588713	0.017198	-0.161634	0.986701	0.326821	0.933548	0.147231	-0.944930	0.319942	0.068880
00964														9.696141	1.516514	0.545532	0.017503	-0.161747	0.986677	0.328022	0.933139	0.147152	-0.944508	0.321076	0.069390
00965														9.699378	1.550444	0.549937	0.017810	-0.161840	0.986656	0.329250	0.932722	0.147050	-0.944075	0.322238	0.069898
00966														9.678324	1.535344	0.603497	0.018162	-0.161919	0.986637	0.330453	0.932317	0.146921	-0.943648	0.323368	0.070439
00967														9.667141	1.587265	0.582867	0.018503	-0.161997	0.986618	0.331639	0.931916	0.146796	-0.943225	0.324485	0.070968
00968														9.631625	1.590408	0.610927	0.018825	-0.162075	0.986599	0.332760	0.931534	0.146680	-0.942824	0.325539	0.071468
00969														9.646815	1.570985	0.617094	0.019177	-0.162205	0.986571	0.333858	0.931153	0.146604	-0.942428	0.326564	0.072010
00970														9.666477	1.585460	0.598585	0.019548	-0.162287	0.986550	0.334905	0.930797	0.146479	-0.942049	0.327537	0.072546
00971														9.645282	1.570142	0.652331	0.019949	-0.162419	0.986520	0.335928	0.930441	0.146393	-0.941676	0.328480	0.073122
00972														9.664891	1.584768	0.634416	0.020392	-0.162563	0.986487	0.336900	0.930104	0.146307	-0.941320	0.329364	0.073734
00973														9.664576	1.584255	0.640467	0.020831	-0.162695	0.986456	0.337876	0.929765	0.146210	-0.940960	0.330254	0.074339
00974														9.660819	1.549215	0.646964	0.021330	-0.162819	0.986425	0.338805	0.929446	0.146087	-0.940615	0.331089	0.074989
00975														9.660541	1.548182	0.653551	0.021881	-0.162914	0.986398	0.339725	0.929136	0.145920	-0.940270	0.331911	0.075676
00976														9.675676	1.528002	0.661782	0.022539	-0.163044	0.986361	0.340672	0.928817	0.145748	-0.939912	0.332741	0.076480
00977														9.663413	1.579612	0.668861	0.023272	-0.163128	0.986330	0.341591	0.928517	0.145507	-0.939560	0.333536	0.077332
00978														9.680775	1.558396	0.629952	0.024107	-0.163271	0.986287	0.342503	0.928215	0.145286	-0.939207	0.334304	0.078297
00979														9.713637	1.553118	0.665500	0.024974	-0.163362	0.986250	0.343320	0.927956	0.145013	-0.938886	0.334978	0.079260
00980														9.712179	1.516095	0.626836	0.025935	-0.163484	0.986205	0.344151	0.927692	0.144734	-0.938556	0.335649	0.080323
00981														9.727269	1.494827	0.638281	0.026921	-0.163604	0.986159	0.344947	0.927441	0.144446	-0.938236	0.336284	0.081402
00982														9.763710	1.488343	0.602166	0.027979	-0.163683	0.986116	0.345768	0.927191	0.144092	-0.937903	0.336935	0.082538
00983														9.874925	1.508179	0.521502	0.029125	-0.163686	0.986082	0.346636	0.926938	0.143630	-0.937548	0.337628	0.083737
00984														10.035883	1.538930	0.518080	0.030454	-0.163593	0.986058	0.347603	0.926672	0.143005	-0.937147	0.338402	0.085086
00985														9.854540	1.568555	0.424544	0.031918	-0.163335	0.986054	0.348543	0.926446	0.142179	-0.936749	0.339144	0.086500
00986														9.770424	1.551728	0.385263	0.033468	-0.162900	0.986075	0.349419	0.926272	0.141161	-0.936369	0.339829	0.087921
00987														9.819850	1.518403	0.425814	0.034963	-0.162138	0.986148	0.350313	0.926133	0.139851	-0.935980	0.340571	0.089180
00988														9.941356	1.543228	0.542258	0.036422	-0.161024	0.986278	0.351188	0.926046	0.138222	-0.935596	0.341335	0.090278
00989														9.837806	1.537319	0.595041	0.037727	-0.159597	0.986461	0.352190	0.925945	0.136337	-0.935168	0.342278	0.091142
00990														9.776339	1.595169	0.648109	0.038859	-0.158080	0.986661	0.353211	0.925836	0.134424	-0.934736	0.343276	0.091812
00991														9.908744	1.718034	0.784645	0.039849	-0.156626	0.986854	0.354144	0.925739	0.132626	-0.934341	0.344204	0.092358
00992														9.703772	1.758887	0.875881	0.040767	-0.155347	0.987018	0.354840	0.925698	0.131040	-0.934038	0.344891	0.092862
00993														9.486749	1.787410	0.843867	0.041624	-0.154244	0.987156	0.355676	0.925577	0.129625	-0.933682	0.345712	0.093387
00994														9.422907	1.783664	0.797318	0.042491	-0.153453	0.987242	0.356747	0.925325	0.128474	-0.933234	0.346737	0.094062
00995														9.380997	1.764187	0.632253	0.043518	-0.153026	0.987264	0.358337	0.924838	0.127555	-0.932578	0.348222	0.095082
00996														9.143448	1.561994	0.456563	0.044654	-0.152887	0.987234	0.360288	0.924179	0.126825	-0.931772	0.350026	0.096352
00997														9.081783	1.409982	0.342842	0.045994	-0.152960	0.987161	0.362578	0.923372	0.126183	-0.930818	0.352119	0.097930
00998														9.018445	1.259616	0.254980	0.047388	-0.153266	0.987048	0.365285	0.922372	0.125686	-0.929689	0.354598	0.099695
00999														9.074158	1.024645	0.319635	0.048472	-0.153775	0.986916	0.368545	0.921111	0.125420	-0.928345	0.357643	0.101321
01000														9.126236	0.791795	0.429718	0.049037	-0.154641	0.986753	0.372702	0.919416	0.125566	-0.926655	0.361607	0.102720
01001														9.196575	0.733043	0.565146	0.049014	-0.155814	0.986570	0.378059	0.917158	0.126068	-0.924483	0.366802	0.103861
01002														9.230585	0.744690	0.844149	0.048503	-0.157318	0.986356	0.384875	0.914206	0.126885	-0.921694	0.373469	0.104890
01003														9.220626	0.813650	1.096062	0.047459	-0.159051	0.986129	0.393195	0.910512	0.127931	-0.918230	0.381669	0.105750
01004														9.171819	0.912089	1.470034	0.046224	-0.161098	0.985855	0.403039	0.906024	0.129155	-0.914015	0.391368	0.106808
01005														9.140200	1.111454	1.757332	0.044908	-0.163355	0.985545	0.414341	0.900729	0.130417	-0.909013	0.402494	0.108135
01006														9.294972	1.236532	1.986185	0.043774	-0.165861	0.985177	0.426354	0.894915	0.131720	-0.903497	0.414268	0.109890
01007														9.363460	1.164798	2.125510	0.042859	-0.168441	0.984779	0.438605	0.888794	0.132935	-0.897657	0.426232	0.111972
01008														9.657742	1.054648	2.203842	0.042218	-0.170973	0.984371	0.451178	0.882332	0.133900	-0.891435	0.438473	0.114390
01009														9.863346	0.930549	2.298835	0.041647	-0.173366	0.983976	0.464172	0.875458	0.134600	-0.884765	0.451129	0.116932
01010														9.843772	0.776407	2.346642	0.040916	-0.175358	0.983654	0.477753	0.868078	0.134881	-0.877541	0.464425	0.119296
01011														9.739638	0.824764	2.115617	0.039997	-0.177043	0.983390	0.491832	0.860183	0.134858	-0.869771	0.478268	0.121480
01012														9.709733	0.993603	1.685270	0.038899	-0.178665	0.983141	0.505873	0.852007	0.134819	-0.861730	0.492100	0.123524
01013														9.805454	1.107423	1.378846	0.037552	-0.180148	0.982922	0.519508	0.843766	0.134796	-0.853640	0.505575	0.125273
01014														9.839919	1.196896	1.186499	0.035833	-0.181472	0.982743	0.532881	0.835379	0.134830	-0.845431	0.518854	0.126637
01015														9.941089	1.304880	1.074795	0.033730	-0.182552	0.982617	0.546061	0.826819	0.134863	-0.837066	0.532020	0.127573
01016														10.086157	1.350844	0.999775	0.031300	-0.183359	0.982548	0.558932	0.818171	0.134879	-0.828623	0.544955	0.128094
01017														10.028039	1.282976	0.956248	0.028698	-0.183867	0.982532	0.571215	0.809650	0.134830	-0.820298	0.557368	0.128263
01018														10.060394	1.278671	0.980572	0.026078	-0.184239	0.982536	0.582782	0.801370	0.134800	-0.812210	0.569089	0.128269
01019														10.090284	1.260701	1.050723	0.023591	-0.184540	0.982542	0.593562	0.793424	0.134768	-0.804442	0.580020	0.128254
01020														10.089061	1.296168	1.185149	0.021227	-0.184724	0.982561	0.603584	0.785839	0.134700	-0.797017	0.590199	0.128177
01021														10.027535	1.235811	1.340639	0.019119	-0.184848	0.982581	0.612868	0.778644	0.134557	-0.789954	0.599620	0.128174
01022														9.953219	1.203722	1.453599	0.017167	-0.184900	0.982607	0.621421	0.771865	0.134387	-0.783289	0.608306	0.128151
01023														9.854749	1.098729	1.619062	0.015377	-0.184899	0.982637	0.629199	0.765569	0.134208	-0.777092	0.616211	0.128111
01024														9.876740	0.954313	1.699251	0.013784	-0.184846	0.982671	0.636262	0.759749	0.133988	-0.771350	0.623389	0.128083
01025														9.864298	0.794830	1.719318	0.012380	-0.184767	0.982704	0.642712	0.754345	0.133734	-0.766008	0.629940	0.128090
01026														9.857174	0.699287	1.761143	0.011280	-0.184628	0.982744	0.648531	0.749417	0.133350	-0.761105	0.635836	0.128190
01027														9.841434	0.496465	1.789860	0.010401	-0.184347	0.982806	0.653976	0.744772	0.132778	-0.756444	0.641350	0.128305
01028														9.851437	0.387642	1.801467	0.009798	-0.183997	0.982878	0.659180	0.740307	0.132016	-0.751922	0.646600	0.128541
01029														9.863962	0.308582	1.824977	0.009398	-0.183500	0.982975	0.664470	0.735744	0.130995	-0.747256	0.651926	0.128845
01030														9.845690	0.270326	1.837246	0.009141	-0.182856	0.983097	0.669979	0.730958	0.129729	-0.742324	0.657468	0.129191
01031														9.814157	0.279033	1.868302	0.008974	-0.182141	0.983231	0.675780	0.725853	0.128294	-0.737049	0.663297	0.129601
01032														9.716522	0.323185	1.912385	0.008879	-0.181358	0.983377	0.681865	0.720421	0.126706	-0.731425	0.669405	0.130059
01033														9.657999	0.412760	1.925847	0.008770	-0.180532	0.983530	0.688237	0.714630	0.125037	-0.725433	0.675805	0.130516
01034														9.607809	0.593782	1.900702	0.008544	-0.179778	0.983670	0.694871	0.708460	0.123445	-0.719084	0.682469	0.130976
01035														9.558601	0.785707	1.856785	0.008200	-0.179135	0.983790	0.701736	0.701920	0.121961	-0.712390	0.689361	0.131461
01036														9.457277	0.976977	1.706387	0.007692	-0.178598	0.983892	0.708707	0.695112	0.120638	-0.705461	0.696363	0.131920
01037														9.412072	1.225954	1.641197	0.007149	-0.178293	0.983951	0.715656	0.688155	0.119494	-0.698416	0.703317	0.132516
01038														9.456098	1.517723	1.523735	0.006534	-0.178301	0.983954	0.722514	0.681103	0.118623	-0.691325	0.710146	0.133275
01039														9.526377	1.728524	1.426917	0.005827	-0.178560	0.983912	0.729071	0.674184	0.118033	-0.684413	0.716654	0.134112
01040														9.523498	1.703076	1.403226	0.005081	-0.178996	0.983837	0.735158	0.667605	0.117666	-0.677876	0.722678	0.134983
01041														9.369360	1.739483	1.403531	0.004379	-0.179647	0.983721	0.740662	0.661522	0.117511	-0.671864	0.728090	0.135954
01042														9.318715	1.783281	1.301063	0.003652	-0.180374	0.983591	0.745531	0.656025	0.117535	-0.666461	0.732869	0.136870
01043														9.524828	1.787174	1.350417	0.002890	-0.181210	0.983440	0.749639	0.651278	0.117802	-0.661840	0.736885	0.137725
01044														9.744103	1.746543	1.373652	0.001980	-0.182081	0.983282	0.753126	0.647148	0.118321	-0.657873	0.740301	0.138411
01045														9.857042	1.670929	1.480068	0.000825	-0.182878	0.983135	0.755935	0.643720	0.119107	-0.654646	0.743088	0.138775
01046														9.883078	1.588872	1.574419	-0.000510	-0.183568	0.983007	0.758049	0.641043	0.120103	-0.652197	0.745229	0.138827
01047														9.854338	1.467064	1.640464	-0.001954	-0.184172	0.982892	0.759473	0.639136	0.121269	-0.650536	0.746717	0.138625
01048														9.858324	1.313301	1.686580	-0.003391	-0.184633	0.982802	0.760367	0.637846	0.122452	-0.649484	0.747706	0.138226
01049														9.779219	1.187453	1.798972	-0.004804	-0.184951	0.982736	0.761013	0.636858	0.123577	-0.648719	0.748469	0.137690
01050														9.770410	1.067232	1.888154	-0.006176	-0.185146	0.982692	0.761639	0.635910	0.124596	-0.647972	0.749226	0.137087
01051														9.741637	0.901873	1.951367	-0.007584	-0.185206	0.982671	0.762366	0.634854	0.125536	-0.647102	0.750106	0.136380
01052														9.679765	0.749360	1.992551	-0.008934	-0.185147	0.982670	0.763181	0.633714	0.126338	-0.646123	0.751084	0.135639
01053														9.644747	0.723506	2.048924	-0.010282	-0.185044	0.982676	0.764050	0.632513	0.127101	-0.645075	0.752121	0.134879
01054														9.666247	0.745212	2.188996	-0.011681	-0.184934	0.982681	0.764986	0.631223	0.127885	-0.643941	0.753231	0.134099
01055														9.632650	0.742801	2.202414	-0.013155	-0.184885	0.982672	0.766040	0.629768	0.128742	-0.642658	0.754460	0.133345
01056														9.594151	0.668653	2.203422	-0.014689	-0.184857	0.982656	0.767189	0.628183	0.129642	-0.641252	0.755787	0.132593
01057														9.597297	0.724166	2.109581	-0.016326	-0.184798	0.982641	0.768521	0.626361	0.130564	-0.639616	0.757312	0.131795
01058														9.599820	0.768745	2.036566	-0.018154	-0.184796	0.982609	0.769939	0.624389	0.131651	-0.637860	0.758939	0.130946
01059														9.735595	0.746639	1.926279	-0.020153	-0.184818	0.982566	0.771435	0.622281	0.132872	-0.635989	0.760663	0.130034
01060														9.702162	0.748050	1.937038	-0.022371	-0.184796	0.982522	0.773103	0.619921	0.134200	-0.633886	0.762593	0.128998
01061														9.655196	0.807693	1.951543	-0.024736	-0.184683	0.982487	0.774919	0.617354	0.135557	-0.631577	0.764700	0.127844
01062														9.622823	0.846001	1.896518	-0.027262	-0.184476	0.982459	0.776894	0.614557	0.136953	-0.629041	0.767000	0.126564
01063														9.693617	0.854808	1.879566	-0.030040	-0.184169	0.982435	0.779004	0.611540	0.138460	-0.626299	0.769481	0.125098
01064														9.786986	0.963112	1.861899	-0.033041	-0.183834	0.982402	0.781252	0.608290	0.140104	-0.623341	0.772132	0.123522
01065														9.687482	1.050269	1.801319	-0.036287	-0.183377	0.982373	0.783587	0.604871	0.141854	-0.620221	0.774922	0.121743
01066														9.622174	1.124161	1.759839	-0.039731	-0.182907	0.982327	0.785832	0.601494	0.143780	-0.617162	0.777657	0.119836
01067														9.641840	1.168072	1.726943	-0.043319	-0.182402	0.982269	0.788098	0.598032	0.145807	-0.614024	0.780440	0.117845
01068														9.662129	1.175080	1.755755	-0.047048	-0.181810	0.982207	0.790394	0.594477	0.147900	-0.610789	0.783289	0.115733
01069														9.633109	1.253863	1.771370	-0.050839	-0.181201	0.982131	0.792789	0.590743	0.150029	-0.607372	0.786250	0.113622
01070														9.670053	1.326254	1.724689	-0.054679	-0.180521	0.982050	0.795192	0.586953	0.152169	-0.603887	0.789239	0.111455
01071														9.498454	1.363479	1.690400	-0.058455	-0.179802	0.981964	0.797559	0.583184	0.154261	-0.600402	0.792192	0.109313
01072														9.448173	1.410588	1.660344	-0.062136	-0.179037	0.981878	0.799741	0.579641	0.156302	-0.597121	0.794960	0.107167
01073														9.500944	1.454718	1.625551	-0.065718	-0.178334	0.981773	0.801676	0.576400	0.158363	-0.594136	0.797471	0.105086
01074														9.571312	1.458464	1.621706	-0.069308	-0.177656	0.981649	0.803351	0.573468	0.160504	-0.591459	0.799733	0.102974
01075														9.592668	1.507743	1.647985	-0.072868	-0.176929	0.981522	0.804798	0.570830	0.162646	-0.589060	0.801778	0.100797
01076														9.603164	1.494725	1.516816	-0.076477	-0.176177	0.981383	0.805950	0.568561	0.164874	-0.587023	0.803555	0.098508
01077														9.635698	1.541849	1.450909	-0.080050	-0.175428	0.981232	0.806773	0.566730	0.167139	-0.585414	0.805011	0.096164
01078														9.716438	1.503864	1.353720	-0.083685	-0.174615	0.981074	0.807229	0.565382	0.169485	-0.584276	0.806135	0.093640
01079														9.680042	1.455716	1.312695	-0.087277	-0.173592	0.980943	0.807393	0.564470	0.171727	-0.583523	0.806994	0.090891
01080														9.625031	1.448081	1.239583	-0.090875	-0.172381	0.980829	0.807250	0.564004	0.173917	-0.583172	0.807579	0.087900
01081														9.661315	1.413511	1.228940	-0.094426	-0.171030	0.980731	0.806849	0.563924	0.176027	-0.583163	0.807922	0.084747
01082														9.647241	1.351141	1.231179	-0.098042	-0.169451	0.980650	0.806237	0.564152	0.178087	-0.583412	0.808096	0.081307
01083														9.632304	1.343351	1.209779	-0.101498	-0.167721	0.980596	0.805371	0.564793	0.179963	-0.584018	0.808009	0.077752
01084														9.588499	1.294775	1.251574	-0.104909	-0.165882	0.980549	0.804293	0.565753	0.181761	-0.584900	0.807717	0.074065
01085														9.496205	1.331756	1.324049	-0.108215	-0.164057	0.980497	0.802847	0.567237	0.183518	-0.586282	0.807049	0.070329
01086														9.457015	1.341647	1.403341	-0.111499	-0.162322	0.980418	0.801016	0.569229	0.185340	-0.588167	0.805996	0.066554
01087														9.434342	1.380598	1.470074	-0.114740	-0.160671	0.980316	0.798919	0.571568	0.187187	-0.590393	0.804671	0.062781
01088														9.461385	1.335314	1.505741	-0.118049	-0.159025	0.980192	0.796572	0.574210	0.189094	-0.592906	0.803115	0.058890
01089														9.529911	1.253006	1.598680	-0.121467	-0.157354	0.980044	0.793945	0.577185	0.191074	-0.595733	0.801310	0.054821
01090														9.526908	1.156010	1.659243	-0.124920	-0.155658	0.979880	0.790955	0.580616	0.193068	-0.598987	0.799159	0.050588
01091														9.571588	1.029411	1.665623	-0.128486	-0.153764	0.979718	0.787665	0.584423	0.195023	-0.602557	0.796748	0.046024
01092														9.651717	0.904293	1.666102	-0.132307	-0.151661	0.979538	0.784203	0.588395	0.197024	-0.606235	0.794223	0.041084
01093														9.704124	0.754905	1.708680	-0.136485	-0.149141	0.979351	0.780669	0.592410	0.199012	-0.609858	0.791712	0.035574
01094														9.743266	0.578757	1.761936	-0.140893	-0.146253	0.979163	0.777117	0.596427	0.200906	-0.613382	0.789231	0.029623
01095														9.758876	0.365722	1.880229	-0.145436	-0.143059	0.978970	0.773409	0.600636	0.202670	-0.616998	0.786620	0.023289
01096														9.686747	0.191760	1.976497	-0.150018	-0.139682	0.978766	0.769641	0.604911	0.204293	-0.620602	0.783946	0.016757
01097														9.888743	0.150400	1.911304	-0.154596	-0.136002	0.978572	0.766174	0.608837	0.205658	-0.623761	0.781550	0.010078
01098														10.106771	0.390779	1.860195	-0.158999	-0.131941	0.978423	0.763179	0.612274	0.206586	-0.626320	0.779559	0.003344
01099														10.085722	0.621217	1.839385	-0.162966	-0.127370	0.978376	0.760566	0.615443	0.206808	-0.628475	0.777822	-0.003423
01100														10.039463	0.967636	1.663708	-0.166281	-0.122223	0.978474	0.757951	0.618893	0.206112	-0.630763	0.775908	-0.010272
01101														10.254563	1.195679	1.575531	-0.169184	-0.116263	0.978703	0.755023	0.622986	0.204523	-0.633496	0.773545	-0.017618
01102														10.358585	1.146125	1.519782	-0.171692	-0.109311	0.979067	0.751741	0.627785	0.201918	-0.636716	0.770673	-0.025612
01103														10.276622	0.860996	1.284465	-0.174006	-0.101205	0.979530	0.748243	0.633086	0.198330	-0.640199	0.767437	-0.034435
01104														9.891482	0.372541	0.944221	-0.176130	-0.091783	0.980079	0.744895	0.638458	0.193656	-0.643513	0.764165	-0.044082
01105														9.343289	0.032543	0.440509	-0.178363	-0.080905	0.980633	0.741817	0.643701	0.188033	-0.646448	0.760988	-0.054796
01106														9.841992	0.255633	0.415970	-0.180628	-0.068662	0.981152	0.739141	0.648645	0.181467	-0.648879	0.757988	-0.066413
01107														10.637664	0.685876	0.393593	-0.182940	-0.055393	0.981562	0.736778	0.653312	0.174187	-0.650915	0.755059	-0.078705
01108														11.349716	1.139226	0.325649	-0.185244	-0.041529	0.981815	0.734447	0.657950	0.166402	-0.652895	0.751916	-0.091381
01109														11.437246	1.531490	0.125634	-0.187591	-0.027167	0.981871	0.731645	0.663092	0.158131	-0.655367	0.748045	-0.104513
01110														11.495891	1.862271	0.005115	-0.189876	-0.012716	0.981726	0.727820	0.669288	0.149437	-0.658958	0.742894	-0.117827
01111														11.867012	2.090250	-0.024935	-0.192089	0.001638	0.981376	0.723193	0.676220	0.140425	-0.663396	0.736698	-0.131079
01112														11.935865	1.933775	0.019452	-0.194361	0.015672	0.980805	0.718265	0.683246	0.131418	-0.668071	0.730020	-0.144053
01113														11.729406	1.383214	-0.026557	-0.197322	0.029333	0.979900	0.713358	0.689922	0.122996	-0.672447	0.723289	-0.157061
01114														11.376359	0.784492	-0.023026	-0.201102	0.042527	0.978647	0.708902	0.695796	0.115436	-0.676029	0.716979	-0.170073
01115														11.127363	0.094439	-0.084466	-0.205993	0.055498	0.976978	0.705470	0.700314	0.108964	-0.678144	0.711675	-0.183412
01116														10.712463	-0.473958	-0.373679	-0.211635	0.068445	0.974949	0.703572	0.703065	0.103369	-0.678378	0.707824	-0.196949
01117														10.228759	-0.777688	-0.796606	-0.217631	0.081680	0.972607	0.703387	0.703982	0.098270	-0.676671	0.705506	-0.210661
01118														9.797040	-1.002172	-1.360415	-0.222823	0.095475	0.970172	0.704880	0.703245	0.092686	-0.673420	0.704508	-0.223997
01119														9.570103	-1.385336	-1.914301	-0.226436	0.110075	0.967786	0.708073	0.700888	0.085951	-0.668849	0.704726	-0.236648
01120														9.321841	-1.947629	-2.312614	-0.227683	0.125477	0.965617	0.712811	0.697062	0.077495	-0.663371	0.705946	-0.248150
01121														8.881895	-2.522906	-2.613151	-0.226049	0.141624	0.963766	0.718710	0.692087	0.066871	-0.657539	0.707784	-0.258232
01122														8.552270	-2.797500	-2.703670	-0.221242	0.158122	0.962315	0.725507	0.686088	0.054065	-0.651684	0.710127	-0.266510
01123														8.530201	-2.654679	-2.700591	-0.213725	0.174771	0.961133	0.733164	0.678899	0.039582	-0.645595	0.713128	-0.273234
01124														8.743366	-2.233401	-2.638217	-0.203816	0.190937	0.960209	0.741627	0.670379	0.024115	-0.639100	0.717032	-0.278238
01125														8.960987	-1.718642	-2.812723	-0.192230	0.206171	0.959448	0.750534	0.660778	0.008382	-0.632254	0.721710	-0.281760
01126														9.304238	-1.287646	-2.838058	-0.179327	0.220062	0.958861	0.759313	0.650685	-0.007328	-0.625529	0.726761	-0.283781
01127														9.567720	-0.921792	-2.660920	-0.165493	0.232265	0.958470	0.767583	0.640548	-0.022690	-0.619216	0.731951	-0.284289
01128														9.742220	-0.869985	-2.076862	-0.151082	0.242795	0.958240	0.775530	0.630201	-0.037403	-0.612966	0.737494	-0.283507
01129														9.662267	-1.064837	-1.275139	-0.136211	0.251907	0.958118	0.784161	0.618449	-0.051121	-0.605424	0.744355	-0.281775
01130														9.004869	-1.195246	-0.755854	-0.120659	0.259335	0.958221	0.794353	0.604131	-0.063478	-0.595353	0.753506	-0.278897
01131														8.332579	-1.226595	-0.595880	-0.104514	0.264694	0.958652	0.806564	0.586497	-0.074005	-0.581835	0.765480	-0.274790
01132														7.997714	-1.212145	-0.569935	-0.087740	0.267673	0.959507	0.820559	0.565542	-0.082734	-0.564787	0.780073	-0.269262
01133														7.939898	-1.395338	-0.700052	-0.070446	0.268154	0.960797	0.835691	0.541786	-0.089937	-0.544663	0.796594	-0.262260
01134														7.986539	-1.426544	-0.777496	-0.052492	0.266444	0.962420	0.851257	0.515823	-0.096375	-0.522117	0.814208	-0.253889
01135														8.286921	-1.210312	-0.800430	-0.034364	0.262960	0.964195	0.866876	0.487941	-0.102178	-0.497338	0.832326	-0.244721
01136														8.875488	-0.990125	-0.749393	-0.016326	0.258166	0.965963	0.882289	0.458253	-0.107563	-0.470424	0.850502	-0.235259
01137														9.355007	-0.690458	-0.591173	0.001248	0.252451	0.967609	0.897237	0.426963	-0.112553	-0.441547	0.868315	-0.225976
01138														9.512065	-0.417474	-0.424023	0.018282	0.246056	0.969083	0.911431	0.394370	-0.117327	-0.411046	0.885398	-0.217053
01139														9.443666	-0.129153	-0.281154	0.034678	0.238906	0.970423	0.924590	0.360936	-0.121898	-0.379383	0.901471	-0.208373
01140														9.496810	0.237031	-0.301897	0.050362	0.230973	0.971656	0.936461	0.327234	-0.126324	-0.347136	0.916280	-0.199817
01141														9.574177	0.472410	-0.308445	0.065335	0.222287	0.972790	0.946947	0.293617	-0.130693	-0.314678	0.929719	-0.191311
01142														9.615198	0.550555	-0.381283	0.079840	0.212819	0.973824	0.955963	0.260444	-0.135293	-0.282420	0.941741	-0.182653
01143														9.762468	0.664611	-0.453407	0.093983	0.202644	0.974732	0.963500	0.227998	-0.140300	-0.250668	0.952340	-0.173820
01144														9.779870	0.698194	-0.415524	0.107930	0.191848	0.975472	0.969571	0.196560	-0.145935	-0.219736	0.961540	-0.164796
01145														9.646798	0.566853	-0.544387	0.121672	0.180823	0.975961	0.974213	0.166476	-0.152299	-0.190014	0.969324	-0.155904
01146														9.526447	0.271436	-0.453290	0.135282	0.169373	0.976223	0.977479	0.138252	-0.159443	-0.161970	0.975807	-0.146856
01147														9.549019	0.047376	-0.389921	0.148672	0.157539	0.976257	0.979568	0.111750	-0.167209	-0.135439	0.981169	-0.137706
01148														9.632442	-0.289846	-0.482870	0.162077	0.145023	0.976063	0.980560	0.087203	-0.175780	-0.110607	0.985578	-0.128070
01149														9.981145	-0.578780	-0.613218	0.175236	0.131751	0.975671	0.980643	0.064579	-0.184849	-0.087362	0.989177	-0.117884
01150														10.320981	-0.672036	-0.552581	0.188220	0.118160	0.974993	0.979944	0.043555	-0.194455	-0.065443	0.992039	-0.107593
01151														10.541288	-0.803372	-0.579901	0.200812	0.104715	0.974017	0.978613	0.023843	-0.204322	-0.044619	0.994216	-0.097688
01152														10.392154	-0.914201	-0.545440	0.212891	0.091381	0.972793	0.976756	0.005571	-0.214282	-0.025001	0.995800	-0.088071
01153														10.297221	-1.059562	-0.271737	0.224359	0.078013	0.971379	0.974485	-0.011325	-0.224167	-0.006487	0.996888	-0.078564
01154														10.039221	-1.213406	0.046565	0.235039	0.064455	0.969847	0.971922	-0.027043	-0.233745	0.011162	0.997554	-0.069002
01155														9.759391	-1.190410	0.097351	0.244587	0.051040	0.968283	0.969220	-0.041799	-0.242621	0.028090	0.997822	-0.059692
01156														9.818798	-1.027003	0.009902	0.253047	0.037979	0.966708	0.966440	-0.055660	-0.250791	0.044282	0.997727	-0.050789
01157														9.883169	-1.037505	-0.083397	0.260355	0.025505	0.965176	0.963665	-0.068684	-0.258132	0.059709	0.997312	-0.042460
01158														9.872508	-1.264652	-0.210286	0.266860	0.013771	0.963637	0.960835	-0.081318	-0.264922	0.074713	0.996593	-0.034932
01159														9.846892	-1.511392	-0.375125	0.272808	0.002879	0.962064	0.957879	-0.094037	-0.271340	0.089688	0.995565	-0.028412
01160														9.785542	-1.855532	-0.501810	0.278547	-0.007210	0.960395	0.954655	-0.107342	-0.277689	0.105093	0.994196	-0.023017
01161														9.686207	-2.230560	-0.535052	0.283931	-0.016544	0.958702	0.951171	-0.121384	-0.283795	0.121066	0.992468	-0.018728
01162														9.632960	-2.541500	-0.413245	0.289066	-0.025103	0.956980	0.947339	-0.136396	-0.289732	0.137802	0.990336	-0.015647
01163														9.360397	-2.714086	-0.299905	0.293692	-0.032681	0.955341	0.943149	-0.152790	-0.295171	0.155613	0.987718	-0.014050
01164														9.150632	-2.745822	-0.337936	0.297880	-0.039248	0.953796	0.938524	-0.170571	-0.300130	0.174469	0.984563	-0.013974
01165														9.170692	-2.711020	-0.178684	0.301413	-0.044721	0.952444	0.933472	-0.189787	-0.304320	0.194371	0.980806	-0.015458
01166														9.055844	-2.711847	-0.002758	0.304539	-0.049502	0.951213	0.927793	-0.210564	-0.307998	0.215538	0.976326	-0.018198
01167														8.901980	-2.540032	-0.105042	0.307300	-0.054032	0.950078	0.921560	-0.232031	-0.311271	0.237266	0.971207	-0.021509
01168														8.860734	-2.151076	-0.316257	0.309958	-0.058322	0.948960	0.914988	-0.252878	-0.314403	0.258308	0.965739	-0.025018
01169														8.251866	-1.836123	-0.447726	0.312320	-0.062312	0.947931	0.908506	-0.272018	-0.317212	0.277621	0.960272	-0.028346
01170														7.798316	-1.583860	-0.612185	0.314310	-0.066299	0.947002	0.902327	-0.289108	-0.319723	0.294983	0.954998	-0.031046
01171														7.710858	-1.443274	-0.999904	0.315804	-0.070135	0.946229	0.896654	-0.304070	-0.321796	0.310289	0.950064	-0.033140
01172														7.831344	-1.549308	-1.306617	0.316969	-0.073333	0.945597	0.891556	-0.317040	-0.323441	0.323511	0.945573	-0.035111
01173														8.174376	-1.931319	-1.335440	0.317843	-0.075557	0.945128	0.887098	-0.328198	-0.324565	0.334712	0.941582	-0.037289
01174														8.250589	-2.505719	-1.059975	0.318673	-0.077197	0.944716	0.883063	-0.338010	-0.325496	0.344451	0.937971	-0.039544
01175														8.046759	-3.033342	-1.146435	0.319644	-0.078568	0.944275	0.879327	-0.346670	-0.326503	0.353005	0.934691	-0.041724
01176														8.072281	-3.402965	-1.256918	0.320978	-0.079992	0.943703	0.875899	-0.353938	-0.327917	0.360243	0.931842	-0.043541
01177														8.065214	-3.587320	-1.164165	0.322408	-0.081595	0.943078	0.872715	-0.360254	-0.329522	0.366635	0.929279	-0.044940
01178														8.228387	-3.906093	-0.933411	0.323975	-0.083213	0.942399	0.869611	-0.366103	-0.331279	0.372581	0.926847	-0.046246
01179														8.300808	-4.258900	-0.415382	0.325825	-0.084637	0.941634	0.866421	-0.371856	-0.333223	0.378355	0.924424	-0.047829
01180														8.191103	-4.118126	-0.428731	0.327987	-0.086148	0.940746	0.863127	-0.377437	-0.335489	0.383974	0.922020	-0.049438
01181														8.107633	-3.699248	-0.631271	0.330141	-0.087720	0.939847	0.859752	-0.383073	-0.337760	0.389658	0.919543	-0.051051
01182														7.985922	-3.405137	-0.470475	0.332018	-0.089728	0.938996	0.856346	-0.388732	-0.339940	0.395520	0.916971	-0.052228
01183														7.708022	-3.402869	-0.095716	0.333297	-0.092572	0.938266	0.853207	-0.393845	-0.341940	0.401186	0.914503	-0.052285
01184														7.707466	-3.340005	-0.208475	0.333865	-0.096738	0.937644	0.850659	-0.397621	-0.343915	0.406097	0.912436	-0.050461
01185														7.996631	-3.096028	-0.591878	0.333664	-0.101619	0.937199	0.848832	-0.400072	-0.345582	0.410065	0.910833	-0.047232
01186														8.459961	-2.605279	-1.153812	0.332358	-0.105952	0.937183	0.847654	-0.402141	-0.346072	0.413546	0.909427	-0.043844
01187														8.830163	-2.610630	-1.650958	0.329825	-0.108750	0.937757	0.847500	-0.403494	-0.344873	0.415884	0.908497	-0.040917
01188														8.771944	-3.349166	-1.514993	0.326400	-0.110586	0.938740	0.848713	-0.402911	-0.342562	0.416112	0.908534	-0.037655
01189														8.460242	-3.903554	-1.228152	0.322082	-0.112058	0.940056	0.851231	-0.400297	-0.339365	0.414330	0.909508	-0.033541
01190														8.081353	-4.192948	-1.003292	0.316614	-0.113268	0.941767	0.854737	-0.396452	-0.335037	0.411315	0.911041	-0.028708
01191														7.816203	-4.672883	-0.518680	0.309448	-0.114213	0.944033	0.858902	-0.392468	-0.329025	0.408081	0.912647	-0.023350
01192														7.939383	-5.287494	0.148678	0.300790	-0.115158	0.946712	0.863058	-0.389501	-0.321590	0.405779	0.913798	-0.017770
01193														8.359831	-5.955282	0.511537	0.291070	-0.116337	0.949602	0.866610	-0.388434	-0.313219	0.405297	0.914103	-0.012243
01194														8.968466	-6.457610	0.333615	0.281022	-0.117921	0.952429	0.869230	-0.389369	-0.304681	0.406774	0.913502	-0.006921
01195														9.510157	-6.793872	-0.027693	0.271203	-0.119443	0.955083	0.870917	-0.392036	-0.296331	0.409821	0.912163	-0.002297
01196														10.900535	-6.033910	-0.323352	0.261967	-0.120739	0.957494	0.871492	-0.396610	-0.288449	0.414579	0.910012	0.001324
01197														12.569421	-5.382127	-0.428732	0.252469	-0.121195	0.959985	0.871443	-0.402709	-0.280024	0.420532	0.907269	0.003944
01198														13.742844	-4.342754	0.200696	0.242767	-0.119976	0.962637	0.871186	-0.409549	-0.270748	0.426730	0.904364	0.005096
01199														13.697673	-2.820483	0.114195	0.232761	-0.117654	0.965391	0.870909	-0.416567	-0.260749	0.432828	0.901460	0.005506
01200														13.359900	-1.893809	-0.785337	0.222612	-0.114685	0.968138	0.869822	-0.425121	-0.250365	0.440289	0.897842	0.005119
01201														14.240819	-1.518935	-1.660109	0.212495	-0.111813	0.970744	0.867909	-0.434855	-0.240072	0.448976	0.893532	0.004640
01202														15.969311	-1.988647	-2.314624	0.203827	-0.109296	0.972887	0.865926	-0.443508	-0.231242	0.456756	0.889582	0.004243
01203														16.169979	-2.126798	-2.633129	0.198954	-0.106033	0.974256	0.864078	-0.450052	-0.225436	0.462370	0.886685	0.002081
01204														14.741803	-0.415999	-2.546278	0.198596	-0.102147	0.974744	0.862465	-0.454184	-0.223316	0.465524	0.885033	-0.002101
01205														12.831845	1.980008	-2.065501	0.200250	-0.098273	0.974804	0.861955	-0.455322	-0.222971	0.465761	0.884887	-0.006472
01206														10.860398	3.275476	-0.780574	0.201861	-0.094555	0.974839	0.863307	-0.452889	-0.222694	0.462551	0.886539	-0.009791
01207														8.325869	3.091185	0.683228	0.202354	-0.091604	0.975019	0.866797	-0.446592	-0.221851	0.455758	0.890036	-0.010968
01208														6.601899	2.225586	2.239250	0.201201	-0.091136	0.975301	0.872311	-0.436297	-0.220723	0.445637	0.895175	-0.008284
01209														6.911753	1.229019	3.821789	0.197823	-0.093824	0.975737	0.879415	-0.422722	-0.218942	0.433008	0.901389	-0.001114
01210														7.850616	0.077072	4.719450	0.192753	-0.098971	0.976243	0.886849	-0.408207	-0.216487	0.419935	0.907509	0.009089
01211														9.029503	-0.829225	4.529886	0.187012	-0.105161	0.976713	0.892710	-0.396767	-0.213647	0.409995	0.911876	0.019678
01212														10.866616	-1.872079	3.940068	0.181589	-0.111527	0.977030	0.896360	-0.389843	-0.211096	0.404431	0.914103	0.029177
01213														11.362617	-3.365068	3.640521	0.177521	-0.117931	0.977025	0.898132	-0.386432	-0.209830	0.402299	0.914747	0.037317
01214														10.409956	-3.476319	3.295885	0.175405	-0.124277	0.976621	0.897836	-0.386770	-0.210472	0.403885	0.913764	0.043739
01215														9.744927	-2.146675	2.320824	0.173847	-0.129753	0.976187	0.895691	-0.391157	-0.211503	0.409285	0.911131	0.048217
01216														9.928547	-0.789882	1.570927	0.171024	-0.133387	0.976196	0.892191	-0.399405	-0.210881	0.418026	0.907019	0.050699
01217														9.859396	-0.143705	1.109207	0.166110	-0.134974	0.976826	0.888136	-0.409980	-0.207677	0.428511	0.902052	0.051773
01218														9.634343	0.663340	0.569523	0.160004	-0.135292	0.977801	0.884371	-0.420390	-0.202882	0.438506	0.897200	0.052384
01219														9.577109	1.809384	0.063630	0.153230	-0.135207	0.978897	0.881746	-0.428523	-0.197211	0.446144	0.893357	0.053556
01220														9.511915	2.621399	-0.153620	0.145908	-0.135023	0.980041	0.880770	-0.433388	-0.190838	0.450505	0.891035	0.055689
01221														9.440409	2.925422	-0.187470	0.138209	-0.134584	0.981216	0.881509	-0.434917	-0.183818	0.451487	0.890356	0.058528
01222														9.402517	2.688881	-0.053614	0.130476	-0.134209	0.982326	0.883850	-0.433163	-0.176576	0.449205	0.891268	0.062103
01223														9.353949	2.451314	0.094022	0.122862	-0.134168	0.983313	0.887399	-0.428758	-0.169380	0.444329	0.893401	0.066383
01224														9.214229	1.951813	0.264449	0.115150	-0.134408	0.984213	0.891832	-0.422357	-0.162021	0.437467	0.896409	0.071235
01225														9.141701	1.365808	0.546317	0.107230	-0.134813	0.985052	0.896815	-0.414600	-0.154366	0.429213	0.899962	0.076444
01226														9.203000	0.696794	0.481081	0.099016	-0.135484	0.985819	0.902089	-0.405960	-0.146398	0.420038	0.903792	0.082022
01227														9.256188	0.310132	0.716129	0.090824	-0.136290	0.986497	0.907239	-0.397194	-0.138401	0.410693	0.907558	0.087573
01228														9.173833	0.063009	1.006525	0.082404	-0.137259	0.987102	0.912090	-0.388767	-0.130201	0.401624	0.911054	0.093157
01229														9.030963	-0.099567	1.316203	0.073637	-0.138435	0.987630	0.916682	-0.380636	-0.121700	0.392775	0.914304	0.098872
01230														9.016302	-0.191245	1.510852	0.064840	-0.139863	0.988046	0.920983	-0.372792	-0.113209	0.384169	0.917314	0.104640
01231														9.177413	-0.242824	1.564279	0.056339	-0.141382	0.988351	0.924901	-0.365424	-0.104995	0.376011	0.920042	0.110176
01232														9.319072	-0.465747	1.671479	0.048321	-0.142761	0.988577	0.928304	-0.358891	-0.097203	0.368668	0.922397	0.115184
01233														9.354360	-0.660911	1.724040	0.040939	-0.143981	0.988733	0.931197	-0.353231	-0.089995	0.362209	0.924390	0.119614
01234														9.310690	-0.884768	1.682004	0.034427	-0.145324	0.988785	0.933596	-0.348412	-0.083712	0.356670	0.926007	0.123679
01235														9.327876	-0.657664	1.661331	0.028958	-0.146474	0.988791	0.935414	-0.344737	-0.078462	0.352366	0.927201	0.127031
01236														9.372404	-0.392757	1.558725	0.024211	-0.147157	0.988817	0.936880	-0.341773	-0.073803	0.348811	0.928190	0.129594
01237														9.394466	-0.198651	1.747628	0.019956	-0.147531	0.988856	0.938308	-0.338750	-0.069475	0.345225	0.929238	0.131669
01238														9.385021	0.020477	1.970168	0.016093	-0.148016	0.988854	0.939913	-0.335080	-0.065453	0.341033	0.930490	0.133730
01239														9.416989	0.284012	2.098349	0.012492	-0.148719	0.988801	0.941672	-0.330837	-0.061656	0.336301	0.931896	0.135912
01240														9.408861	0.692444	2.153803	0.009067	-0.149463	0.988726	0.943492	-0.326285	-0.057976	0.331272	0.933380	0.138058
01241														9.441993	0.977017	2.152851	0.005452	-0.150085	0.988658	0.945395	-0.321421	-0.054007	0.325881	0.934967	0.140137
01242														9.386278	1.121938	2.182371	0.001416	-0.150883	0.988551	0.947459	-0.316009	-0.049589	0.319873	0.936682	0.142508
01243														9.481659	1.112475	2.031770	-0.003008	-0.151806	0.988406	0.949644	-0.310121	-0.044741	0.313317	0.938499	0.145094
01244														9.540808	1.200900	1.845143	-0.007629	-0.152593	0.988260	0.951785	-0.304196	-0.039622	0.306670	0.940309	0.147556
01245														9.708869	1.122735	1.727543	-0.012415	-0.153187	0.988119	0.953921	-0.298099	-0.034228	0.299801	0.942163	0.149829
01246														9.900273	0.953213	1.667236	-0.017236	-0.153570	0.987988	0.956197	-0.291325	-0.028601	0.292217	0.944217	0.151864
01247														10.012455	0.733876	1.863261	-0.021882	-0.153834	0.987854	0.958623	-0.283751	-0.022953	0.283836	0.946478	0.153678
01248														9.944531	0.654685	1.960334	-0.026378	-0.154052	0.987711	0.961003	-0.275990	-0.017381	0.275276	0.948735	0.155324
01249														10.057313	0.761552	1.935298	-0.030794	-0.154052	0.987583	0.963189	-0.268564	-0.011859	0.267057	0.950863	0.156652
01250														10.117389	0.842480	1.896380	-0.035263	-0.153718	0.987485	0.965214	-0.261386	-0.006221	0.259071	0.952916	0.157588
01251														9.991227	0.852094	1.895432	-0.039829	-0.153101	0.987408	0.967143	-0.254233	-0.000409	0.251094	0.954948	0.158197
01252														9.957983	0.898852	1.967086	-0.044505	-0.152253	0.987339	0.968967	-0.247126	0.005569	0.243149	0.956947	0.158526
01253														10.053446	0.960162	1.919196	-0.049246	-0.151205	0.987275	0.970681	-0.240087	0.011648	0.235271	0.958903	0.158595
01254														10.142745	1.036314	1.796675	-0.053944	-0.149907	0.987227	0.972326	-0.232952	0.017757	0.227315	0.960865	0.158325
01255														10.085236	1.096850	1.771289	-0.058496	-0.148262	0.987217	0.973995	-0.225310	0.023876	0.218890	0.962940	0.157586
01256														9.973140	1.200238	1.720393	-0.062825	-0.146360	0.987234	0.975767	-0.216753	0.029961	0.209601	0.965193	0.156430
01257														9.842968	1.282229	1.843851	-0.066776	-0.144104	0.987307	0.977669	-0.207061	0.035903	0.199259	0.967657	0.154713
01258														9.711535	1.182790	2.047313	-0.070331	-0.141300	0.987465	0.979753	-0.195807	0.041763	0.187452	0.970409	0.152211
01259														9.597744	0.848889	2.294363	-0.073491	-0.138022	0.987699	0.981988	-0.182871	0.047512	0.174064	0.973400	0.148975
01260														9.690055	0.367443	2.581676	-0.076436	-0.134628	0.987944	0.984278	-0.168422	0.053202	0.159229	0.976478	0.145385
01261														9.600215	0.050655	2.630020	-0.078933	-0.131182	0.988211	0.986497	-0.152978	0.058489	0.143502	0.979484	0.141486
01262														9.299702	-0.279078	2.800744	-0.081095	-0.127652	0.988498	0.988559	-0.136850	0.063428	0.127179	0.982333	0.137289
01263														9.283180	-0.875775	2.563255	-0.082777	-0.123894	0.988837	0.990399	-0.120464	0.067815	0.110717	0.984956	0.132676
01264														9.340181	-1.285046	2.132314	-0.083902	-0.119568	0.989274	0.991957	-0.104444	0.071506	0.094774	0.987317	0.127369
01265														9.339206	-1.427099	2.079690	-0.084745	-0.114739	0.989774	0.993184	-0.089505	0.074661	0.080023	0.989355	0.121542
01266														9.522484	-1.376447	2.033094	-0.085791	-0.109595	0.990267	0.994062	-0.076189	0.077688	0.066934	0.991052	0.115481
01267														9.655946	-1.201642	1.905652	-0.087174	-0.104345	0.990713	0.994643	-0.064570	0.080719	0.055548	0.992443	0.109415
01268														9.709169	-0.866563	1.888930	-0.088940	-0.099205	0.991084	0.994992	-0.054411	0.083844	0.045608	0.993578	0.103547
01269														9.747384	-0.335172	1.832551	-0.091192	-0.094227	0.991365	0.995144	-0.045653	0.087201	0.037042	0.994503	0.097933
01270														9.840900	0.351261	1.740177	-0.094112	-0.089441	0.991536	0.995131	-0.037737	0.091049	0.029274	0.995277	0.092556
01271														9.851423	0.961065	1.790963	-0.097766	-0.084778	0.991592	0.994982	-0.029623	0.095567	0.021272	0.995959	0.087248
01272														9.839596	1.232758	1.822128	-0.102180	-0.080067	0.991538	0.994686	-0.020859	0.100820	0.012610	0.996571	0.081773
01273														9.800700	1.140040	1.777072	-0.107240	-0.075122	0.991391	0.994228	-0.011169	0.106701	0.003057	0.997112	0.075886
01274														9.615561	0.850992	1.933308	-0.112840	-0.070155	0.991133	0.993586	-0.000604	0.113076	-0.007334	0.997536	0.069773
01275														9.396865	0.470229	1.937294	-0.118836	-0.065221	0.990769	0.992751	0.010262	0.119750	-0.017977	0.997818	0.063528
01276														9.307523	0.225247	1.911348	-0.125118	-0.060263	0.990310	0.991731	0.021114	0.126583	-0.028538	0.997959	0.057123
01277														9.476015	0.065086	1.871685	-0.131495	-0.055244	0.989776	0.990545	0.032079	0.133388	-0.039120	0.997957	0.050504
01278														9.701389	0.036730	1.801028	-0.137889	-0.050124	0.989179	0.989201	0.043132	0.140078	-0.049687	0.997811	0.043636
01279														9.815592	-0.013620	1.776292	-0.144348	-0.044786	0.988513	0.987679	0.054497	0.146695	-0.060441	0.997509	0.036368
01280														9.984709	0.004119	1.864288	-0.150928	-0.039255	0.987765	0.985937	0.066552	0.153294	-0.071755	0.997010	0.028658
01281														10.015716	-0.037252	1.927074	-0.157649	-0.033502	0.986927	0.983962	0.079139	0.159861	-0.083460	0.996300	0.020488
01282														10.065247	-0.270961	1.816986	-0.164675	-0.027733	0.985958	0.981687	0.092448	0.166562	-0.095769	0.995331	0.012001
01283														9.979517	-0.437443	1.678923	-0.172093	-0.021813	0.984839	0.979066	0.106520	0.173443	-0.108688	0.994071	0.003025
01284														9.772085	-0.526952	1.583177	-0.179903	-0.015846	0.983557	0.976096	0.121083	0.180489	-0.121952	0.992516	-0.006317
01285														9.620499	-0.707807	1.312531	-0.188075	-0.009866	0.982105	0.972802	0.135795	0.187658	-0.135216	0.990688	-0.015941
01286														9.465983	-0.775218	1.159430	-0.196231	-0.003978	0.980550	0.969270	0.150508	0.194584	-0.148355	0.988601	-0.025679
01287														9.123134	-0.701299	0.906533	-0.204310	0.001931	0.978904	0.965571	0.164895	0.201202	-0.161028	0.986309	-0.035554
01288														8.861040	-0.504149	0.695410	-0.212140	0.007607	0.977210	0.961795	0.178705	0.207402	-0.173055	0.983873	-0.045227
01289														8.828682	-0.304375	0.492820	-0.219460	0.012767	0.975538	0.958060	0.191686	0.213020	-0.184277	0.981373	-0.054298
01290														9.080824	0.089646	0.190808	-0.225753	0.017239	0.974032	0.954635	0.203212	0.217661	-0.194183	0.978983	-0.062332
01291														9.496509	0.684073	-0.247171	-0.231192	0.021622	0.972668	0.951515	0.213528	0.221417	-0.202904	0.976698	-0.069940
01292														9.671644	1.285665	-0.555802	-0.235664	0.025839	0.971491	0.948566	0.223555	0.224157	-0.211390	0.974349	-0.077194
01293														9.794525	2.037427	-1.015429	-0.239176	0.029953	0.970514	0.945864	0.233038	0.225909	-0.219400	0.972006	-0.084069
01294														10.473617	2.979631	-1.302469	-0.241739	0.033744	0.969755	0.943557	0.241365	0.226810	-0.226412	0.969848	-0.090187
01295														11.493874	3.688631	-1.475848	-0.243450	0.037312	0.969196	0.941633	0.248636	0.226954	-0.232509	0.967878	-0.095664
01296														12.402148	4.450902	-1.482944	-0.244573	0.041126	0.968758	0.939987	0.255212	0.226475	-0.237925	0.966010	-0.101076
01297														12.890992	5.100958	-1.272414	-0.245464	0.045110	0.968356	0.938375	0.261773	0.225670	-0.243310	0.964075	-0.106586
01298														12.734027	5.402587	-1.590896	-0.246299	0.049129	0.967948	0.936702	0.268497	0.224720	-0.248851	0.962027	-0.112150
01299														12.115863	5.342921	-2.191840	-0.247240	0.053476	0.967477	0.934842	0.275769	0.223657	-0.254840	0.959735	-0.118173
01300														11.415402	5.168930	-2.472837	-0.248059	0.058075	0.967003	0.932717	0.284013	0.222207	-0.261736	0.957060	-0.124620
01301														10.665233	4.994477	-2.629928	-0.248118	0.062981	0.966680	0.930512	0.293020	0.219743	-0.269417	0.954030	-0.131308
01302														9.853731	4.953884	-2.968762	-0.246636	0.068067	0.966715	0.928539	0.302197	0.215618	-0.277462	0.950812	-0.137735
01303														9.120339	4.824930	-3.374780	-0.243142	0.073241	0.967222	0.926812	0.311739	0.209378	-0.286186	0.947341	-0.143677
01304														8.861619	4.632490	-3.525357	-0.237404	0.078298	0.968251	0.925241	0.321864	0.200831	-0.295921	0.943543	-0.148856
01305														8.742166	4.306040	-3.349625	-0.229548	0.083218	0.969733	0.923617	0.332875	0.190066	-0.306983	0.939292	-0.153272
01306														8.512072	3.800811	-3.108615	-0.220093	0.087763	0.971523	0.921643	0.344996	0.177627	-0.319582	0.934492	-0.156818
01307														7.996496	3.259369	-2.920689	-0.209537	0.091873	0.973475	0.919309	0.357681	0.164122	-0.333115	0.929314	-0.159407
01308														7.542651	2.750002	-2.680736	-0.198219	0.095386	0.975505	0.916708	0.370307	0.150062	-0.346923	0.923999	-0.160843
01309														7.441134	2.286464	-2.640597	-0.186351	0.098375	0.977546	0.913925	0.382515	0.135729	-0.360574	0.918697	-0.161189
01310														7.599712	1.906273	-2.561622	-0.174048	0.100638	0.979581	0.910853	0.394500	0.121308	-0.374237	0.913368	-0.160329
01311														7.912149	1.679084	-2.543957	-0.161397	0.102343	0.981569	0.907378	0.406517	0.106812	-0.388093	0.907893	-0.158474
01312														8.435288	1.485971	-2.789271	-0.148678	0.103632	0.983440	0.903475	0.418545	0.092484	-0.402029	0.902264	-0.155858
01313														9.245856	1.299942	-2.844405	-0.135952	0.104730	0.985164	0.899441	0.429949	0.078416	-0.415358	0.896758	-0.152651
01314														10.090952	1.105360	-2.682969	-0.123301	0.105395	0.986757	0.895631	0.440035	0.064914	-0.427366	0.891774	-0.148651
01315														10.307220	0.687417	-2.602303	-0.110685	0.105867	0.988201	0.892293	0.448463	0.051899	-0.437677	0.887510	-0.144102
01316														9.909204	0.123645	-2.459761	-0.098152	0.106161	0.989493	0.889567	0.455102	0.039413	-0.446136	0.884088	-0.139106
01317														8.868527	-0.542410	-2.339368	-0.085726	0.106348	0.990627	0.887427	0.460134	0.027398	-0.452908	0.881457	-0.133822
01318														7.981574	-1.035714	-2.163503	-0.073172	0.105854	0.991686	0.885714	0.463961	0.015829	-0.458428	0.879508	-0.127705
01319														7.575206	-1.123352	-1.786827	-0.060099	0.104370	0.992721	0.884466	0.466583	0.004491	-0.462718	0.878298	-0.120353
01320														7.662837	-0.772788	-1.328376	-0.046602	0.102111	0.993681	0.883839	0.467745	-0.006615	-0.465465	0.877945	-0.112047
01321														8.119240	-0.189530	-1.116311	-0.032973	0.099459	0.994495	0.883892	0.467366	-0.017435	-0.466527	0.878452	-0.103321
01322														8.589743	0.466795	-1.056823	-0.019831	0.096894	0.995097	0.884366	0.465968	-0.027747	-0.466372	0.879480	-0.094931
01323														8.950730	1.082910	-1.203909	-0.007702	0.094831	0.995464	0.884866	0.464343	-0.037388	-0.465782	0.880564	-0.087489
01324														9.194116	1.601165	-1.423682	0.003210	0.093300	0.995633	0.885065	0.463163	-0.046256	-0.465456	0.881349	-0.081089
01325														9.439950	1.981577	-1.704144	0.013139	0.091992	0.995673	0.884677	0.463014	-0.054453	-0.466020	0.881564	-0.075299
01326														9.521817	2.163780	-1.855563	0.022305	0.090541	0.995643	0.883494	0.464320	-0.062017	-0.467912	0.881027	-0.069636
01327														9.669068	2.211995	-1.938656	0.030993	0.088852	0.995563	0.881335	0.467404	-0.069151	-0.471474	0.879567	-0.063822
01328														9.783098	2.157617	-1.852205	0.039255	0.086734	0.995458	0.878138	0.472366	-0.075786	-0.476794	0.877125	-0.057622
01329														9.786310	1.988159	-1.796020	0.047026	0.084477	0.995315	0.874027	0.478918	-0.081943	-0.483596	0.873786	-0.051313
01330														9.731365	1.707459	-1.771530	0.053999	0.082070	0.995163	0.869302	0.486512	-0.087292	-0.491323	0.869810	-0.045073
01331														9.703852	1.324475	-1.803565	0.060242	0.079509	0.995012	0.864108	0.494853	-0.091859	-0.499688	0.865332	-0.038893
01332														9.708303	0.963693	-1.694331	0.065872	0.076707	0.994875	0.858483	0.503836	-0.095688	-0.508594	0.860387	-0.032664
01333														9.852937	0.715190	-1.469026	0.071148	0.073792	0.994732	0.852493	0.513269	-0.099050	-0.517874	0.855050	-0.026389
01334														9.939746	0.517999	-1.205195	0.076058	0.070823	0.994585	0.846196	0.523027	-0.101954	-0.527415	0.849369	-0.020150
01335														10.065086	0.272624	-1.100954	0.080462	0.067827	0.994447	0.839840	0.532722	-0.104288	-0.536837	0.843568	-0.014100
01336														10.026766	0.221307	-1.251496	0.084094	0.064715	0.994354	0.833738	0.541933	-0.105781	-0.545719	0.837926	-0.008382
01337														10.031113	0.064185	-1.302810	0.086858	0.061438	0.994324	0.827996	0.550556	-0.106346	-0.553965	0.832534	-0.003050
01338														10.144038	-0.113138	-1.311949	0.088747	0.057736	0.994380	0.822539	0.558771	-0.105854	-0.561742	0.827310	0.002099
01339														10.166891	-0.411586	-1.200584	0.090075	0.053622	0.994490	0.817236	0.566736	-0.104578	-0.569221	0.822153	0.007227
01340														9.972142	-0.639154	-1.077889	0.090837	0.049107	0.994654	0.812047	0.574515	-0.102524	-0.576479	0.817019	0.012310
01341														9.583153	-0.750519	-1.004155	0.091321	0.044412	0.994831	0.806955	0.582075	-0.100060	-0.583510	0.811921	0.017317
01342														9.359051	-0.728310	-0.931802	0.091544	0.039511	0.995017	0.802180	0.589118	-0.097196	-0.590023	0.807080	0.022236
01343														9.165314	-0.572806	-0.780579	0.091690	0.034377	0.995194	0.798007	0.595259	-0.094084	-0.595633	0.802798	0.027146
01344														9.250657	-0.333094	-0.861341	0.091582	0.029162	0.995370	0.794566	0.600366	-0.090695	-0.600232	0.799193	0.031812
01345														9.409124	-0.120262	-0.875370	0.091405	0.024275	0.995518	0.791836	0.604442	-0.087443	-0.603855	0.796279	0.036027
01346														9.451189	0.053071	-1.005454	0.091394	0.019785	0.995618	0.789576	0.607800	-0.084558	-0.606809	0.793844	0.039927
01347														9.361329	0.160886	-1.348856	0.091860	0.015962	0.995644	0.786916	0.611533	-0.082406	-0.610184	0.791058	0.043615
01348														9.693023	0.293588	-1.120570	0.092800	0.012808	0.995602	0.783217	0.616458	-0.080934	-0.614784	0.787283	0.047176
01349														10.157648	-0.002525	-0.427379	0.094136	0.010334	0.995506	0.778692	0.622273	-0.080093	-0.620304	0.782732	0.050531
01350														10.438227	-0.545284	0.233488	0.095776	0.008368	0.995368	0.773944	0.628212	-0.079752	-0.625969	0.777997	0.053691
01351														10.408944	-1.062719	0.312402	0.097799	0.007180	0.995180	0.769438	0.633668	-0.080186	-0.631190	0.773572	0.056448
01352														10.279940	-1.539682	-0.003845	0.100020	0.007072	0.994960	0.765432	0.638337	-0.081483	-0.635696	0.769725	0.058433
01353														10.148087	-1.625135	-0.384657	0.102397	0.008144	0.994710	0.761684	0.642524	-0.083669	-0.639807	0.766222	0.059589
01354														10.108549	-1.403224	-0.737081	0.104820	0.010066	0.994440	0.757612	0.646961	-0.086405	-0.644234	0.762457	0.060188
01355														10.183959	-1.005997	-1.021847	0.107383	0.012913	0.994134	0.752876	0.652009	-0.089792	-0.649344	0.758101	0.060293
01356														9.993239	-0.695552	-1.043642	0.109716	0.016859	0.993820	0.747542	0.657574	-0.093682	-0.655090	0.753201	0.059543
01357														10.042340	-0.449967	-0.849234	0.111819	0.021988	0.993485	0.741598	0.663624	-0.098156	-0.661459	0.747743	0.057899
01358														9.867945	-0.273034	-0.740163	0.113589	0.027811	0.993139	0.734771	0.670478	-0.102814	-0.668737	0.741408	0.055724
01359														9.568985	-0.294984	-0.552005	0.115084	0.034072	0.992771	0.726824	0.678353	-0.107536	-0.677114	0.733945	0.053303
01360														9.435581	-0.524427	-0.213188	0.116195	0.040690	0.992393	0.717986	0.686950	-0.112232	-0.686291	0.725565	0.050605
01361														9.426347	-0.946723	0.205809	0.117190	0.047543	0.991971	0.708811	0.695614	-0.117077	-0.695595	0.716840	0.047820
01362														9.417108	-1.333191	0.351995	0.118120	0.054539	0.991500	0.699613	0.704017	-0.122072	-0.704691	0.708086	0.045003
01363														9.376428	-1.430942	0.332261	0.118974	0.061671	0.990980	0.690562	0.711998	-0.127216	-0.713421	0.699468	0.042121
01364														9.360233	-1.450449	0.292975	0.119592	0.068817	0.990435	0.681760	0.719512	-0.132313	-0.721735	0.691063	0.039131
01365														9.326763	-1.434866	0.135445	0.120262	0.075742	0.989848	0.673187	0.726597	-0.137388	-0.729627	0.682876	0.036394
01366														9.396143	-1.396422	-0.190786	0.120815	0.082528	0.989239	0.664714	0.733408	-0.142366	-0.737264	0.674761	0.033749
01367														9.576240	-1.422498	-0.276447	0.121034	0.089196	0.988633	0.656230	0.740082	-0.147111	-0.744791	0.666576	0.031042
01368														9.493583	-1.791373	-0.209538	0.120828	0.095602	0.988059	0.647649	0.746735	-0.151452	-0.752298	0.658215	0.028310
01369														9.185585	-2.053663	-0.157760	0.120699	0.101837	0.987452	0.638560	0.753641	-0.155776	-0.760048	0.649349	0.025935
01370														9.107836	-2.125543	-0.181026	0.120686	0.107966	0.986802	0.628747	0.760940	-0.160150	-0.768188	0.639776	0.023951
01371														9.197913	-1.963977	0.005578	0.120782	0.113990	0.986113	0.618941	0.767999	-0.164586	-0.776095	0.630225	0.022207
01372														9.115307	-1.804881	0.332050	0.120364	0.119788	0.985476	0.609826	0.774391	-0.168613	-0.783342	0.621264	0.020159
01373														8.809740	-1.746160	0.514507	0.119705	0.125058	0.984902	0.600996	0.780493	-0.172148	-0.790237	0.612529	0.018270
01374														8.658875	-1.821938	0.560946	0.118920	0.129874	0.984373	0.592042	0.786610	-0.175306	-0.797085	0.603637	0.016653
01375														8.497810	-1.752852	0.472367	0.118209	0.134370	0.983855	0.582703	0.792885	-0.178299	-0.804043	0.594372	0.015428
01376														8.541757	-1.690293	-0.015678	0.117377	0.138568	0.983373	0.572545	0.799640	-0.181018	-0.811427	0.584273	0.014523
01377														8.694964	-1.745093	-0.426443	0.116389	0.142452	0.982935	0.561102	0.807169	-0.183420	-0.819523	0.572875	0.014016
01378														8.659360	-1.977558	-0.398043	0.115066	0.145868	0.982590	0.548452	0.815398	-0.185274	-0.828227	0.560222	0.013823
01379														8.622690	-2.239716	-0.190904	0.113782	0.148719	0.982312	0.534533	0.824266	-0.186707	-0.837453	0.546322	0.014291
01380														8.668812	-2.454439	0.138402	0.112818	0.151210	0.982043	0.519438	0.833566	-0.188022	-0.847028	0.531322	0.015498
01381														8.689744	-2.578391	0.421442	0.112495	0.153462	0.981730	0.503438	0.843003	-0.189465	-0.856677	0.515554	0.017575
01382														8.730776	-2.801086	0.601505	0.112786	0.155623	0.981357	0.486803	0.852349	-0.191113	-0.866200	0.499283	0.020375
01383														8.807721	-2.949861	0.559180	0.113731	0.157979	0.980871	0.469540	0.861514	-0.193198	-0.875555	0.482531	0.023804
01384														8.795403	-2.787477	0.436329	0.114663	0.160661	0.980327	0.452219	0.870215	-0.195509	-0.884506	0.465740	0.027128
01385														8.714818	-2.661581	0.349213	0.114995	0.163553	0.979809	0.435196	0.878363	-0.197696	-0.892962	0.449143	0.029830
01386														8.660343	-2.901209	0.348877	0.114899	0.166519	0.979321	0.418120	0.886161	-0.199735	-0.901096	0.432423	0.032194
01387														8.748140	-3.325446	0.395342	0.114798	0.169615	0.978801	0.400672	0.893708	-0.201861	-0.909001	0.415352	0.034636
01388														8.800290	-3.656669	0.412169	0.114738	0.172784	0.978254	0.383088	0.900892	-0.204052	-0.916558	0.398170	0.037175
01389														8.859832	-4.088179	0.367110	0.114754	0.175913	0.977694	0.365442	0.907705	-0.206213	-0.923734	0.380954	0.039876
01390														8.983017	-4.344337	0.191782	0.114838	0.178890	0.977144	0.347632	0.914218	-0.208225	-0.930572	0.363599	0.042799
