// Start Time: Unknown
// Update Rate: 100.0Hz
// Filter Profile: human (46.1)
// Option Flags: AHS Disabled ICC Disabled 
// Firmware Version: 4.0.2
PacketCounter	SampleTimeFine	Year	Month	Day	Second	UTC_Nano	UTC_Year	UTC_Month	UTC_Day	UTC_Hour	UTC_Minute	UTC_Second	UTC_Valid	Acc_X	Acc_Y	Acc_Z	Mat[1][1]	Mat[2][1]	Mat[3][1]	Mat[1][2]	Mat[2][2]	Mat[3][2]	Mat[1][3]	Mat[2][3]	Mat[3][3]
00472														9.320494	0.810513	-3.077381	-0.060844	-0.317097	0.946440	-0.905718	0.416038	0.081164	-0.419492	-0.852269	-0.312513
00473														9.295620	0.795946	-3.057575	-0.060573	-0.316902	0.946522	-0.905769	0.415903	0.081282	-0.419420	-0.852407	-0.312233
00474														9.299452	0.804167	-3.078304	-0.060371	-0.316738	0.946590	-0.905806	0.415808	0.081363	-0.419370	-0.852515	-0.312006
00475														9.302730	0.767303	-3.036572	-0.060170	-0.316584	0.946654	-0.905836	0.415724	0.081453	-0.419334	-0.852612	-0.311787
00476														9.297487	0.796982	-3.051623	-0.060049	-0.316413	0.946719	-0.905849	0.415690	0.081476	-0.419322	-0.852692	-0.311584
00477														9.284500	0.767235	-3.061853	-0.059943	-0.316284	0.946769	-0.905863	0.415655	0.081503	-0.419308	-0.852757	-0.311425
00478														9.315114	0.833493	-3.060075	-0.059895	-0.316137	0.946821	-0.905875	0.415635	0.081473	-0.419288	-0.852822	-0.311275
00479														9.301957	0.803350	-3.070938	-0.059866	-0.316064	0.946847	-0.905874	0.415638	0.081468	-0.419295	-0.852847	-0.311197
00480														9.315661	0.832431	-3.058700	-0.059839	-0.315994	0.946872	-0.905862	0.415663	0.081470	-0.419324	-0.852861	-0.311120
00481														9.296416	0.832110	-3.087197	-0.059842	-0.315995	0.946872	-0.905830	0.415730	0.081492	-0.419394	-0.852828	-0.311116
00482														9.324592	0.809902	-3.065104	-0.059884	-0.316030	0.946858	-0.905797	0.415802	0.081494	-0.419460	-0.852780	-0.311158
00483														9.312239	0.823775	-3.036795	-0.059924	-0.316073	0.946841	-0.905746	0.415909	0.081515	-0.419564	-0.852712	-0.311204
00484														9.266966	0.808238	-3.049109	-0.059983	-0.316169	0.946805	-0.905694	0.416017	0.081543	-0.419668	-0.852624	-0.311306
00485														9.305685	0.852947	-3.056035	-0.060057	-0.316270	0.946766	-0.905628	0.416155	0.081570	-0.419800	-0.852519	-0.311416
00486														9.311053	0.823104	-3.040613	-0.060175	-0.316378	0.946723	-0.905552	0.416320	0.081569	-0.419947	-0.852398	-0.311549
00487														9.268725	0.815237	-3.076477	-0.060267	-0.316515	0.946671	-0.905465	0.416500	0.081611	-0.420120	-0.852259	-0.311694
00488														9.268277	0.814800	-3.077942	-0.060428	-0.316573	0.946642	-0.905373	0.416711	0.081562	-0.420296	-0.852135	-0.311797
00489														9.281461	0.843605	-3.067422	-0.060560	-0.316628	0.946614	-0.905259	0.416959	0.081552	-0.420521	-0.851993	-0.311882
00490														9.272210	0.864547	-3.062459	-0.060768	-0.316651	0.946593	-0.905146	0.417224	0.081461	-0.420736	-0.851855	-0.311969
00491														9.272008	0.863408	-3.063391	-0.060916	-0.316657	0.946582	-0.905043	0.417457	0.081408	-0.420935	-0.851738	-0.312018
00492														9.257076	0.913744	-3.074958	-0.061104	-0.316651	0.946572	-0.904923	0.417733	0.081326	-0.421166	-0.851605	-0.312070
00493														9.231375	0.897034	-3.058237	-0.061292	-0.316605	0.946575	-0.904827	0.417963	0.081209	-0.421345	-0.851509	-0.312091
00494														9.260237	0.918061	-3.098855	-0.061532	-0.316498	0.946595	-0.904736	0.418198	0.081016	-0.421506	-0.851434	-0.312079
00495														9.290242	0.937569	-3.035547	-0.061749	-0.316358	0.946628	-0.904649	0.418423	0.080824	-0.421660	-0.851375	-0.312030
00496														9.283352	0.920645	-3.092878	-0.062034	-0.316167	0.946673	-0.904566	0.418655	0.080546	-0.421796	-0.851332	-0.311965
00497														9.283882	0.917689	-3.092164	-0.062257	-0.315934	0.946736	-0.904481	0.418885	0.080307	-0.421946	-0.851305	-0.311835
00498														9.269101	0.921580	-3.039584	-0.062501	-0.315794	0.946767	-0.904403	0.419096	0.080086	-0.422077	-0.851254	-0.311799
00499														9.315599	0.853105	-3.028884	-0.062727	-0.315602	0.946816	-0.904350	0.419258	0.079838	-0.422157	-0.851245	-0.311714
00500														9.287769	0.871892	-3.050966	-0.063021	-0.315408	0.946861	-0.904294	0.419437	0.079530	-0.422233	-0.851229	-0.311655
00501														9.302790	0.817219	-3.039951	-0.063269	-0.315256	0.946895	-0.904253	0.419574	0.079272	-0.422284	-0.851217	-0.311617
00502														9.319841	0.851310	-3.051188	-0.063518	-0.315111	0.946927	-0.904237	0.419661	0.078997	-0.422281	-0.851229	-0.311591
00503														9.306425	0.819017	-3.063056	-0.063712	-0.315027	0.946942	-0.904228	0.419718	0.078793	-0.422271	-0.851231	-0.311597
00504														9.320143	0.846021	-3.051736	-0.063894	-0.314948	0.946956	-0.904251	0.419709	0.078579	-0.422194	-0.851265	-0.311609
00505														9.297646	0.836172	-3.057930	-0.064023	-0.314931	0.946953	-0.904304	0.419625	0.078416	-0.422060	-0.851313	-0.311659
00506														9.316925	0.834167	-3.030080	-0.064122	-0.314919	0.946950	-0.904386	0.419478	0.078263	-0.421871	-0.851390	-0.311706
00507														9.288665	0.854485	-3.053162	-0.064136	-0.314893	0.946958	-0.904482	0.419287	0.078167	-0.421661	-0.851493	-0.311706
00508														9.286425	0.764771	-3.031368	-0.064106	-0.314923	0.946950	-0.904609	0.419025	0.078114	-0.421395	-0.851611	-0.311744
00509														9.318334	0.794403	-3.095238	-0.064025	-0.314950	0.946946	-0.904741	0.418741	0.078100	-0.421123	-0.851741	-0.311758
00510														9.311883	0.778917	-3.049699	-0.063893	-0.315005	0.946937	-0.904889	0.418415	0.078133	-0.420825	-0.851881	-0.311778
00511														9.308623	0.771473	-3.026962	-0.063684	-0.315042	0.946939	-0.905056	0.418039	0.078212	-0.420497	-0.852052	-0.311753
00512														9.292334	0.779311	-3.078792	-0.063486	-0.315117	0.946927	-0.905238	0.417631	0.078288	-0.420136	-0.852224	-0.311769
00513														9.308416	0.772226	-3.027407	-0.063266	-0.315158	0.946928	-0.905401	0.417259	0.078382	-0.419817	-0.852391	-0.311743
00514														9.297985	0.750403	-3.061896	-0.063063	-0.315169	0.946938	-0.905606	0.416808	0.078416	-0.419406	-0.852607	-0.311704
00515														9.305300	0.765388	-3.004078	-0.062761	-0.315200	0.946948	-0.905796	0.416367	0.078558	-0.419039	-0.852811	-0.311639
00516														9.289142	0.773401	-3.055462	-0.062538	-0.315229	0.946953	-0.905988	0.415937	0.078628	-0.418658	-0.853011	-0.311605
00517														9.320619	0.759522	-3.055554	-0.062269	-0.315242	0.946966	-0.906183	0.415492	0.078728	-0.418275	-0.853223	-0.311539
00518														9.277168	0.788785	-3.025930	-0.062001	-0.315258	0.946979	-0.906391	0.415022	0.078821	-0.417865	-0.853446	-0.311479
00519														9.289323	0.774899	-3.054533	-0.061728	-0.315278	0.946990	-0.906588	0.414571	0.078928	-0.417478	-0.853657	-0.311418
00520														9.306106	0.812377	-3.065791	-0.061496	-0.315274	0.947006	-0.906788	0.414122	0.078984	-0.417077	-0.853877	-0.311353
00521														9.315051	0.790701	-3.071604	-0.061261	-0.315342	0.946999	-0.907002	0.413637	0.079064	-0.416646	-0.854086	-0.311356
00522														9.311814	0.783856	-3.048644	-0.060990	-0.315389	0.947000	-0.907195	0.413191	0.079183	-0.416265	-0.854285	-0.311320
00523														9.320729	0.762357	-3.054512	-0.060770	-0.315434	0.947000	-0.907410	0.412709	0.079239	-0.415830	-0.854501	-0.311308
00524														9.298095	0.755242	-3.060373	-0.060502	-0.315543	0.946980	-0.907591	0.412280	0.079390	-0.415473	-0.854668	-0.311328
00525														9.291563	0.741606	-3.014648	-0.060221	-0.315643	0.946965	-0.907768	0.411860	0.079553	-0.415128	-0.854834	-0.311334
00526														9.322785	0.728542	-3.015356	-0.059971	-0.315767	0.946940	-0.907937	0.411459	0.079704	-0.414795	-0.854981	-0.311372
00527														9.353988	0.715564	-3.016119	-0.059699	-0.315888	0.946916	-0.908097	0.411070	0.079880	-0.414482	-0.855123	-0.311398
00528														9.358141	0.768374	-2.999787	-0.059499	-0.316039	0.946879	-0.908245	0.410717	0.080014	-0.414187	-0.855237	-0.311478
00529														9.333949	0.842693	-3.006315	-0.059255	-0.316143	0.946859	-0.908372	0.410404	0.080182	-0.413944	-0.855349	-0.311494
00530														9.336767	0.851186	-3.030070	-0.059068	-0.316280	0.946825	-0.908482	0.410132	0.080326	-0.413729	-0.855429	-0.311561
00531														9.306209	0.785911	-3.030669	-0.058827	-0.316496	0.946768	-0.908568	0.409894	0.080570	-0.413574	-0.855463	-0.311671
00532														9.333993	0.766191	-3.009099	-0.058628	-0.316682	0.946718	-0.908656	0.409660	0.080762	-0.413409	-0.855506	-0.311773
00533														9.345635	0.753179	-3.039093	-0.058401	-0.316866	0.946671	-0.908736	0.409439	0.080985	-0.413265	-0.855544	-0.311859
00534														9.361662	0.791646	-3.052231	-0.058270	-0.317048	0.946618	-0.908798	0.409272	0.081134	-0.413148	-0.855557	-0.311981
00535														9.341359	0.748508	-3.018905	-0.058141	-0.317274	0.946550	-0.908841	0.409140	0.081314	-0.413071	-0.855536	-0.312139
00536														9.303270	0.793126	-3.037803	-0.058046	-0.317472	0.946490	-0.908860	0.409067	0.081471	-0.413042	-0.855498	-0.312282
00537														9.254709	0.771140	-3.027055	-0.057945	-0.317601	0.946452	-0.908890	0.408975	0.081595	-0.412990	-0.855493	-0.312363
00538														9.261491	0.787406	-2.970687	-0.057825	-0.317742	0.946412	-0.908878	0.408966	0.081772	-0.413033	-0.855445	-0.312438
00539														9.247940	0.802621	-3.046391	-0.057730	-0.317863	0.946377	-0.908855	0.408987	0.081927	-0.413097	-0.855390	-0.312503
00540														9.298547	0.789851	-3.018622	-0.057666	-0.317906	0.946367	-0.908837	0.409008	0.082016	-0.413145	-0.855364	-0.312511
00541														9.266891	0.804623	-3.018671	-0.057586	-0.317945	0.946359	-0.908789	0.409091	0.082142	-0.413264	-0.855310	-0.312503
00542														9.278897	0.790733	-3.047714	-0.057526	-0.317991	0.946347	-0.908737	0.409184	0.082254	-0.413387	-0.855248	-0.312509
00543														9.320746	0.843728	-3.077665	-0.057459	-0.318062	0.946327	-0.908671	0.409303	0.082394	-0.413541	-0.855165	-0.312531
00544														9.314260	0.830051	-3.032125	-0.057427	-0.318153	0.946298	-0.908597	0.409442	0.082519	-0.413708	-0.855065	-0.312586
00545														9.282391	0.844893	-3.032774	-0.057413	-0.318251	0.946266	-0.908522	0.409585	0.082630	-0.413874	-0.854960	-0.312654
00546														9.328815	0.823770	-3.085823	-0.057470	-0.318319	0.946240	-0.908434	0.409771	0.082675	-0.414059	-0.854845	-0.312722
00547														9.293837	0.830830	-3.063552	-0.057492	-0.318427	0.946202	-0.908362	0.409914	0.082757	-0.414214	-0.854737	-0.312814
00548														9.270958	0.823061	-3.070273	-0.057579	-0.318521	0.946165	-0.908296	0.410059	0.082769	-0.414347	-0.854632	-0.312922
00549														9.265814	0.896716	-3.048986	-0.057625	-0.318621	0.946129	-0.908219	0.410215	0.082829	-0.414508	-0.854520	-0.313016
00550														9.267286	0.859523	-3.113099	-0.057688	-0.318671	0.946108	-0.908152	0.410362	0.082846	-0.414647	-0.854431	-0.313075
00551														9.254856	0.874160	-3.085184	-0.057725	-0.318747	0.946081	-0.908074	0.410523	0.082905	-0.414813	-0.854325	-0.313143
00552														9.260628	0.845004	-3.068406	-0.057751	-0.318754	0.946076	-0.908001	0.410677	0.082939	-0.414970	-0.854248	-0.313146
00553														9.295247	0.837939	-3.091743	-0.057774	-0.318691	0.946096	-0.907938	0.410815	0.082939	-0.415103	-0.854205	-0.313086
00554														9.295382	0.837635	-3.091420	-0.057770	-0.318638	0.946114	-0.907880	0.410939	0.082963	-0.415230	-0.854166	-0.313025
00555														9.260897	0.844288	-3.067791	-0.057774	-0.318595	0.946129	-0.907817	0.411073	0.082988	-0.415368	-0.854117	-0.312975
00556														9.274432	0.873674	-3.056346	-0.057819	-0.318521	0.946151	-0.907756	0.411212	0.082962	-0.415494	-0.854078	-0.312915
00557														9.261210	0.843445	-3.067078	-0.057815	-0.318445	0.946177	-0.907691	0.411353	0.082982	-0.415638	-0.854038	-0.312832
00558														9.274828	0.872883	-3.055371	-0.057828	-0.318358	0.946205	-0.907638	0.411471	0.082971	-0.415750	-0.854014	-0.312749
00559														9.297528	0.880200	-3.049332	-0.057842	-0.318263	0.946236	-0.907586	0.411590	0.082957	-0.415864	-0.853992	-0.312658
00560														9.303855	0.894252	-3.095188	-0.057868	-0.318222	0.946248	-0.907531	0.411711	0.082958	-0.415980	-0.853949	-0.312621
00561														9.287583	0.856607	-3.082753	-0.057876	-0.318097	0.946290	-0.907499	0.411789	0.082920	-0.416049	-0.853958	-0.312505
00562														9.307250	0.856302	-3.053549	-0.057941	-0.318004	0.946317	-0.907450	0.411908	0.082858	-0.416145	-0.853935	-0.312440
00563														9.297136	0.832673	-3.087485	-0.058010	-0.317918	0.946342	-0.907420	0.411990	0.082781	-0.416201	-0.853928	-0.312384
00564														9.294196	0.824054	-3.064295	-0.058133	-0.317848	0.946358	-0.907390	0.412081	0.082664	-0.416250	-0.853910	-0.312368
00565														9.279313	0.873771	-3.076056	-0.058214	-0.317770	0.946379	-0.907370	0.412142	0.082572	-0.416282	-0.853909	-0.312327
00566														9.279446	0.872252	-3.076086	-0.058334	-0.317699	0.946396	-0.907363	0.412185	0.082439	-0.416281	-0.853915	-0.312312
00567														9.273610	0.900029	-3.093577	-0.058385	-0.317641	0.946412	-0.907373	0.412179	0.082362	-0.416252	-0.853940	-0.312284
00568														9.293053	0.899373	-3.065156	-0.058472	-0.317603	0.946419	-0.907379	0.412185	0.082263	-0.416227	-0.853951	-0.312287
00569														9.293147	0.898016	-3.065270	-0.058542	-0.317527	0.946440	-0.907378	0.412206	0.082167	-0.416219	-0.853969	-0.312248
00570														9.293297	0.896632	-3.065220	-0.058607	-0.317458	0.946459	-0.907401	0.412176	0.082062	-0.416159	-0.854009	-0.312218
00571														9.285838	0.836512	-3.059118	-0.058645	-0.317465	0.946455	-0.907419	0.412145	0.082018	-0.416114	-0.854021	-0.312244
00572														9.279948	0.864609	-3.076727	-0.058693	-0.317382	0.946480	-0.907443	0.412112	0.081921	-0.416056	-0.854068	-0.312194
00573														9.317594	0.819854	-3.059230	-0.058768	-0.317290	0.946506	-0.907451	0.412116	0.081807	-0.416027	-0.854100	-0.312145
00574														9.301515	0.824687	-3.110811	-0.058881	-0.317201	0.946529	-0.907472	0.412102	0.081652	-0.415967	-0.854140	-0.312116
00575														9.292616	0.844604	-3.105327	-0.059029	-0.317131	0.946543	-0.907490	0.412097	0.081476	-0.415906	-0.854169	-0.312119
00576														9.301771	0.820214	-3.111227	-0.059220	-0.317033	0.946564	-0.907511	0.412096	0.081247	-0.415833	-0.854205	-0.312115
00577														9.289685	0.832535	-3.083016	-0.059414	-0.317008	0.946560	-0.907522	0.412109	0.081054	-0.415781	-0.854209	-0.312176
00578														9.324287	0.822916	-3.107003	-0.059662	-0.316920	0.946574	-0.907531	0.412143	0.080787	-0.415726	-0.854225	-0.312204
00579														9.324356	0.819768	-3.107628	-0.059948	-0.316838	0.946583	-0.907531	0.412200	0.080496	-0.415686	-0.854228	-0.312250
00580														9.298784	0.801472	-3.090775	-0.060243	-0.316776	0.946585	-0.907541	0.412235	0.080196	-0.415620	-0.854234	-0.312321
00581														9.298690	0.798257	-3.091891	-0.060527	-0.316752	0.946575	-0.907553	0.412263	0.079923	-0.415553	-0.854229	-0.312422
00582														9.324126	0.809995	-3.110879	-0.060844	-0.316719	0.946566	-0.907558	0.412310	0.079621	-0.415496	-0.854219	-0.312528
00583														9.332932	0.784679	-3.117876	-0.061161	-0.316709	0.946549	-0.907560	0.412360	0.079332	-0.415444	-0.854198	-0.312653
00584														9.292292	0.817345	-3.113583	-0.061515	-0.316671	0.946539	-0.907577	0.412390	0.078985	-0.415355	-0.854198	-0.312772
00585														9.295106	0.821218	-3.138426	-0.061809	-0.316730	0.946500	-0.907572	0.412446	0.078751	-0.415323	-0.854149	-0.312948
00586														9.326177	0.803997	-3.140538	-0.062140	-0.316757	0.946469	-0.907581	0.412482	0.078459	-0.415254	-0.854122	-0.313115
00587														9.291212	0.808340	-3.119151	-0.062383	-0.316834	0.946427	-0.907579	0.412520	0.078277	-0.415221	-0.854075	-0.313286
00588														9.293844	0.812840	-3.144338	-0.062696	-0.316894	0.946387	-0.907594	0.412538	0.078011	-0.415142	-0.854044	-0.313475
00589														9.284412	0.832262	-3.140866	-0.062930	-0.316991	0.946339	-0.907606	0.412545	0.077834	-0.415080	-0.854004	-0.313664
00590														9.286692	0.793752	-3.102202	-0.063181	-0.317073	0.946294	-0.907619	0.412553	0.077634	-0.415012	-0.853970	-0.313847
00591														9.269822	0.798047	-3.155988	-0.063395	-0.317182	0.946243	-0.907630	0.412558	0.077482	-0.414956	-0.853927	-0.314038
00592														9.308119	0.797697	-3.101049	-0.063578	-0.317305	0.946190	-0.907634	0.412571	0.077369	-0.414920	-0.853875	-0.314227
00593														9.265580	0.787559	-3.137124	-0.063779	-0.317430	0.946134	-0.907660	0.412541	0.077223	-0.414832	-0.853843	-0.314430
00594														9.278599	0.815577	-3.128333	-0.063970	-0.317535	0.946086	-0.907672	0.412539	0.077088	-0.414776	-0.853805	-0.314608
00595														9.261465	0.776998	-3.117935	-0.064135	-0.317618	0.946047	-0.907693	0.412518	0.076960	-0.414705	-0.853784	-0.314756
00596														9.271522	0.797819	-3.085776	-0.064348	-0.317716	0.946000	-0.907736	0.412457	0.076779	-0.414578	-0.853777	-0.314944
00597														9.266572	0.787304	-3.168208	-0.064506	-0.317830	0.945951	-0.907778	0.412388	0.076655	-0.414462	-0.853768	-0.315121
00598														9.301950	0.779841	-3.089966	-0.064704	-0.317916	0.945909	-0.907810	0.412347	0.076490	-0.414360	-0.853756	-0.315288
00599														9.285027	0.784320	-3.143604	-0.064873	-0.318023	0.945861	-0.907844	0.412296	0.076359	-0.414258	-0.853741	-0.315462
00600														9.281455	0.775587	-3.122402	-0.065035	-0.318128	0.945815	-0.907884	0.412233	0.076229	-0.414147	-0.853732	-0.315633
00601														9.289873	0.752077	-3.129741	-0.065153	-0.318232	0.945771	-0.907919	0.412172	0.076142	-0.414052	-0.853723	-0.315783
00602														9.266848	0.742737	-3.136899	-0.065341	-0.318334	0.945724	-0.907954	0.412123	0.075990	-0.413945	-0.853709	-0.315961
00603														9.280004	0.770995	-3.127848	-0.065454	-0.318418	0.945688	-0.907982	0.412077	0.075904	-0.413866	-0.853699	-0.316090
00604														9.302026	0.777285	-3.124427	-0.065607	-0.318551	0.945632	-0.908054	0.411944	0.075770	-0.413684	-0.853714	-0.316288
00605														9.275911	0.761049	-3.108540	-0.065706	-0.318670	0.945586	-0.908103	0.411848	0.075695	-0.413559	-0.853716	-0.316446
00606														9.297927	0.767662	-3.105085	-0.065790	-0.318796	0.945537	-0.908172	0.411710	0.075621	-0.413395	-0.853736	-0.316608
00607														9.283726	0.736950	-3.117754	-0.065846	-0.318947	0.945482	-0.908220	0.411607	0.075600	-0.413280	-0.853728	-0.316777
00608														9.314571	0.722181	-3.119828	-0.065871	-0.319098	0.945430	-0.908265	0.411507	0.075608	-0.413177	-0.853721	-0.316932
00609														9.294545	0.721259	-3.149816	-0.065858	-0.319212	0.945392	-0.908285	0.411454	0.075655	-0.413136	-0.853703	-0.317033
00610														9.316680	0.728786	-3.145796	-0.065881	-0.319301	0.945361	-0.908329	0.411359	0.075638	-0.413034	-0.853716	-0.317131
00611														9.286048	0.705259	-3.209538	-0.065802	-0.319472	0.945308	-0.908347	0.411297	0.075771	-0.413009	-0.853682	-0.317256
00612														9.273685	0.721106	-3.182030	-0.065725	-0.319576	0.945279	-0.908361	0.411247	0.075875	-0.412991	-0.853667	-0.317319
00613														9.241864	0.736156	-3.182752	-0.065635	-0.319707	0.945240	-0.908357	0.411229	0.076015	-0.413013	-0.853626	-0.317400
00614														9.226604	0.745241	-3.131708	-0.065545	-0.319800	0.945215	-0.908337	0.411247	0.076152	-0.413071	-0.853583	-0.317442
00615														9.251836	0.760897	-3.150323	-0.065474	-0.319887	0.945191	-0.908298	0.411309	0.076284	-0.413167	-0.853520	-0.317483
00616														9.248587	0.754725	-3.127684	-0.065433	-0.319948	0.945173	-0.908234	0.411429	0.076396	-0.413315	-0.853439	-0.317509
00617														9.291743	0.725914	-3.157007	-0.065408	-0.319979	0.945164	-0.908178	0.411539	0.076475	-0.413442	-0.853375	-0.317516
00618														9.311061	0.727061	-3.129157	-0.065438	-0.320048	0.945139	-0.908105	0.411688	0.076534	-0.413597	-0.853277	-0.317577
00619														9.307854	0.762998	-3.170912	-0.065498	-0.320088	0.945121	-0.908044	0.411821	0.076545	-0.413722	-0.853198	-0.317627
00620														9.258369	0.820985	-3.160490	-0.065568	-0.320119	0.945106	-0.907996	0.411929	0.076531	-0.413816	-0.853135	-0.317676
00621														9.265756	0.836583	-3.104267	-0.065650	-0.320190	0.945076	-0.907918	0.412098	0.076549	-0.413974	-0.853026	-0.317760
00622														9.274277	0.814102	-3.111000	-0.065793	-0.320278	0.945036	-0.907832	0.412292	0.076525	-0.414140	-0.852899	-0.317885
00623														9.314150	0.777343	-3.118238	-0.065917	-0.320395	0.944988	-0.907736	0.412502	0.076539	-0.414332	-0.852754	-0.318025
00624														9.288163	0.762154	-3.101782	-0.066060	-0.320483	0.944948	-0.907650	0.412695	0.076515	-0.414497	-0.852627	-0.318149
00625														9.325118	0.761225	-3.149868	-0.066181	-0.320566	0.944911	-0.907567	0.412878	0.076506	-0.414658	-0.852507	-0.318260
00626														9.324739	0.760293	-3.151216	-0.066365	-0.320616	0.944882	-0.907506	0.413030	0.076409	-0.414763	-0.852415	-0.318372
00627														9.301891	0.751065	-3.157677	-0.066551	-0.320638	0.944861	-0.907449	0.413176	0.076295	-0.414857	-0.852336	-0.318460
00628														9.252416	0.808142	-3.147542	-0.066717	-0.320661	0.944842	-0.907371	0.413364	0.076217	-0.415003	-0.852237	-0.318536
00629														9.261064	0.784996	-3.154000	-0.066852	-0.320691	0.944822	-0.907310	0.413508	0.076155	-0.415114	-0.852155	-0.318610
00630														9.268564	0.843006	-3.161964	-0.066949	-0.320719	0.944806	-0.907258	0.413629	0.076120	-0.415212	-0.852086	-0.318666
00631														9.274251	0.813436	-3.145072	-0.067010	-0.320773	0.944783	-0.907215	0.413722	0.076122	-0.415295	-0.852020	-0.318734
00632														9.276975	0.819929	-3.169091	-0.067065	-0.320803	0.944768	-0.907187	0.413788	0.076108	-0.415349	-0.851977	-0.318779
00633														9.251199	0.805094	-3.151900	-0.067051	-0.320896	0.944738	-0.907158	0.413836	0.076183	-0.415414	-0.851919	-0.318851
00634														9.273383	0.813332	-3.147658	-0.067003	-0.320999	0.944706	-0.907145	0.413847	0.076281	-0.415450	-0.851875	-0.318922
00635														9.250454	0.806044	-3.153843	-0.066966	-0.321106	0.944673	-0.907138	0.413846	0.076366	-0.415471	-0.851835	-0.319001
00636														9.312816	0.778069	-3.155744	-0.066923	-0.321284	0.944615	-0.907144	0.413813	0.076479	-0.415465	-0.851784	-0.319144
00637														9.280800	0.793075	-3.156991	-0.066857	-0.321438	0.944568	-0.907157	0.413762	0.076594	-0.415446	-0.851751	-0.319258
00638														9.266547	0.763764	-3.169247	-0.066827	-0.321626	0.944506	-0.907197	0.413660	0.076673	-0.415365	-0.851729	-0.319422
00639														9.276540	0.787248	-3.137397	-0.066775	-0.321852	0.944432	-0.907245	0.413534	0.076782	-0.415268	-0.851705	-0.319613
00640														9.278616	0.794862	-3.162956	-0.066723	-0.322117	0.944345	-0.907307	0.413376	0.076897	-0.415140	-0.851681	-0.319841
00641														9.237444	0.831695	-3.159512	-0.066680	-0.322324	0.944278	-0.907387	0.413188	0.076965	-0.414972	-0.851694	-0.320024
00642														9.248511	0.816746	-3.190311	-0.066653	-0.322538	0.944207	-0.907464	0.413010	0.077024	-0.414809	-0.851700	-0.320220
00643														9.273419	0.788699	-3.146244	-0.066656	-0.322719	0.944145	-0.907540	0.412838	0.077041	-0.414641	-0.851714	-0.320399
00644														9.253058	0.787766	-3.176724	-0.066616	-0.322934	0.944074	-0.907624	0.412641	0.077106	-0.414464	-0.851728	-0.320591
00645														9.258312	0.759173	-3.161024	-0.066548	-0.323158	0.944002	-0.907715	0.412425	0.077195	-0.414276	-0.851748	-0.320782
00646														9.254479	0.795274	-3.204089	-0.066498	-0.323342	0.943943	-0.907808	0.412210	0.077247	-0.414080	-0.851782	-0.320943
00647														9.234163	0.794683	-3.234247	-0.066397	-0.323538	0.943883	-0.907889	0.412011	0.077361	-0.413919	-0.851804	-0.321093
00648														9.241456	0.811445	-3.178738	-0.066296	-0.323681	0.943841	-0.907985	0.411785	0.077440	-0.413725	-0.851859	-0.321197
00649														9.252772	0.796804	-3.208636	-0.066155	-0.323835	0.943798	-0.908072	0.411569	0.077566	-0.413556	-0.851905	-0.321293
00650														9.229780	0.789785	-3.214818	-0.065999	-0.323970	0.943763	-0.908157	0.411356	0.077699	-0.413394	-0.851957	-0.321364
00651														9.226487	0.784005	-3.192515	-0.065832	-0.324111	0.943726	-0.908218	0.411190	0.077863	-0.413287	-0.851983	-0.321433
00652														9.231176	0.794595	-3.112897	-0.065648	-0.324188	0.943712	-0.908295	0.410994	0.078002	-0.413147	-0.852048	-0.321439
00653														9.251722	0.758386	-3.147195	-0.065437	-0.324271	0.943698	-0.908367	0.410802	0.078172	-0.413022	-0.852109	-0.321439
00654														9.279822	0.780947	-3.188877	-0.065247	-0.324331	0.943691	-0.908460	0.410573	0.078296	-0.412848	-0.852197	-0.321430
00655														9.279702	0.781714	-3.189037	-0.065080	-0.324382	0.943685	-0.908534	0.410388	0.078410	-0.412712	-0.852267	-0.321420
00656														9.254149	0.767750	-3.171126	-0.064938	-0.324456	0.943669	-0.908588	0.410246	0.078528	-0.412615	-0.852307	-0.321437
00657														9.267586	0.798341	-3.160966	-0.064794	-0.324489	0.943668	-0.908662	0.410065	0.078614	-0.412474	-0.852381	-0.321420
00658														9.259659	0.782543	-3.217993	-0.064617	-0.324534	0.943664	-0.908729	0.409892	0.078741	-0.412355	-0.852447	-0.321399
00659														9.273512	0.770933	-3.143174	-0.064452	-0.324583	0.943659	-0.908803	0.409708	0.078852	-0.412218	-0.852517	-0.321388
00660														9.256593	0.777216	-3.194960	-0.064317	-0.324626	0.943653	-0.908846	0.409590	0.078959	-0.412142	-0.852558	-0.321379
00661														9.267141	0.801227	-3.161542	-0.064172	-0.324694	0.943639	-0.908884	0.409481	0.079088	-0.412082	-0.852584	-0.321387
00662														9.275967	0.779955	-3.167084	-0.064038	-0.324739	0.943633	-0.908917	0.409387	0.079203	-0.412031	-0.852612	-0.321377
00663														9.253318	0.772785	-3.172325	-0.063904	-0.324791	0.943625	-0.908940	0.409311	0.079327	-0.412001	-0.852629	-0.321372
00664														9.230719	0.765517	-3.177451	-0.063790	-0.324804	0.943628	-0.908955	0.409259	0.079424	-0.411985	-0.852649	-0.321339
00665														9.239702	0.744194	-3.182570	-0.063649	-0.324815	0.943634	-0.908946	0.409252	0.079562	-0.412027	-0.852648	-0.321287
00666														9.217295	0.737124	-3.187102	-0.063480	-0.324773	0.943659	-0.908957	0.409204	0.079687	-0.412029	-0.852687	-0.321181
00667														9.231048	0.767657	-3.175978	-0.063397	-0.324702	0.943689	-0.908938	0.409234	0.079746	-0.412083	-0.852699	-0.321078
00668														9.276365	0.783571	-3.165024	-0.063336	-0.324603	0.943727	-0.908929	0.409251	0.079765	-0.412113	-0.852729	-0.320961
00669														9.228815	0.760870	-3.150877	-0.063246	-0.324500	0.943769	-0.908908	0.409287	0.079817	-0.412174	-0.852751	-0.320826
00670														9.279926	0.790345	-3.186257	-0.063170	-0.324390	0.943812	-0.908876	0.409349	0.079862	-0.412255	-0.852763	-0.320689
00671														9.274534	0.777093	-3.138640	-0.063075	-0.324304	0.943848	-0.908846	0.409402	0.079934	-0.412336	-0.852770	-0.320566
00672														9.300111	0.792203	-3.156171	-0.062995	-0.324274	0.943863	-0.908806	0.409473	0.080023	-0.412436	-0.852748	-0.320497
00673														9.294116	0.821401	-3.173683	-0.062921	-0.324218	0.943888	-0.908770	0.409538	0.080093	-0.412525	-0.852738	-0.320408
00674														9.277972	0.785131	-3.159923	-0.062803	-0.324146	0.943920	-0.908725	0.409616	0.080203	-0.412642	-0.852727	-0.320285
00675														9.267655	0.762388	-3.192488	-0.062688	-0.324045	0.943962	-0.908685	0.409688	0.080293	-0.412748	-0.852732	-0.320138
00676														9.298229	0.787700	-3.129396	-0.062544	-0.323976	0.943996	-0.908644	0.409753	0.080424	-0.412861	-0.852726	-0.320006
00677														9.304266	0.802047	-3.174904	-0.062397	-0.323893	0.944034	-0.908598	0.409829	0.080555	-0.412984	-0.852721	-0.319861
00678														9.292635	0.818243	-3.145374	-0.062269	-0.323836	0.944062	-0.908568	0.409874	0.080670	-0.413071	-0.852721	-0.319749
00679														9.280916	0.834526	-3.116056	-0.062121	-0.323806	0.944082	-0.908527	0.409935	0.080820	-0.413182	-0.852703	-0.319652
00680														9.293001	0.820309	-3.143753	-0.061955	-0.323755	0.944110	-0.908485	0.409997	0.080980	-0.413300	-0.852693	-0.319528
00681														9.293213	0.821423	-3.142837	-0.061802	-0.323707	0.944137	-0.908449	0.410047	0.081123	-0.413401	-0.852687	-0.319413
00682														9.279978	0.792259	-3.152245	-0.061685	-0.323636	0.944169	-0.908393	0.410150	0.081241	-0.413543	-0.852664	-0.319289
00683														9.274034	0.822076	-3.169429	-0.061513	-0.323607	0.944190	-0.908356	0.410197	0.081410	-0.413649	-0.852653	-0.319183
00684														9.239770	0.830567	-3.145242	-0.061392	-0.323568	0.944211	-0.908297	0.410300	0.081547	-0.413796	-0.852618	-0.319085
00685														9.248982	0.809429	-3.149729	-0.061268	-0.323521	0.944235	-0.908246	0.410388	0.081677	-0.413927	-0.852594	-0.318980
00686														9.288360	0.812795	-3.092262	-0.061186	-0.323477	0.944256	-0.908187	0.410497	0.081777	-0.414068	-0.852558	-0.318895
00687														9.300477	0.798054	-3.120081	-0.061099	-0.323411	0.944284	-0.908118	0.410631	0.081880	-0.414233	-0.852518	-0.318784
00688														9.342525	0.849709	-3.150216	-0.061070	-0.323267	0.944335	-0.908065	0.410747	0.081884	-0.414353	-0.852517	-0.318632
00689														9.428453	0.829414	-3.144354	-0.061041	-0.323175	0.944369	-0.908008	0.410866	0.081913	-0.414481	-0.852495	-0.318525
00690														9.630028	0.813299	-3.071874	-0.061095	-0.323049	0.944408	-0.907981	0.410943	0.081830	-0.414533	-0.852505	-0.318429
00691														10.065661	0.731113	-3.348430	-0.061346	-0.323118	0.944368	-0.908015	0.410912	0.081610	-0.414422	-0.852494	-0.318603
00692														10.583912	0.622566	-3.499459	-0.062212	-0.323806	0.944076	-0.908123	0.410783	0.081050	-0.414055	-0.852295	-0.319611
00693														11.036929	0.708908	-3.587152	-0.063938	-0.325314	0.943442	-0.908301	0.410592	0.080022	-0.413402	-0.851813	-0.321735
00694														10.941709	0.834901	-3.332431	-0.066294	-0.327550	0.942505	-0.908613	0.410169	0.078636	-0.412344	-0.851159	-0.324808
00695														10.279623	0.918726	-3.084995	-0.068876	-0.329895	0.941502	-0.908901	0.409821	0.077107	-0.411284	-0.850421	-0.328069
00696														10.239409	1.084819	-3.146879	-0.071348	-0.331784	0.940653	-0.909019	0.409839	0.075608	-0.410602	-0.849677	-0.330839
00697														10.390233	1.294888	-3.296924	-0.073672	-0.333108	0.940006	-0.908982	0.410193	0.074119	-0.410274	-0.848988	-0.333009
00698														9.971979	1.542130	-3.417701	-0.075677	-0.334063	0.939508	-0.908840	0.410735	0.072840	-0.410222	-0.848350	-0.334693
00699														9.575988	1.584556	-3.410399	-0.077165	-0.334865	0.939101	-0.908725	0.411148	0.071938	-0.410200	-0.847834	-0.336027
00700														9.179161	1.374282	-3.342732	-0.078392	-0.335357	0.938824	-0.908637	0.411486	0.071115	-0.410162	-0.847476	-0.336976
00701														8.903896	1.133145	-3.165375	-0.079573	-0.335653	0.938619	-0.908604	0.411716	0.070203	-0.410008	-0.847247	-0.337737
00702														8.693707	0.989825	-2.951896	-0.080667	-0.335855	0.938453	-0.908638	0.411800	0.069271	-0.409720	-0.847126	-0.338389
00703														8.500626	0.854232	-2.963220	-0.081545	-0.336143	0.938274	-0.908765	0.411650	0.068495	-0.409264	-0.847085	-0.339043
00704														8.372869	0.736999	-2.937020	-0.082214	-0.336486	0.938093	-0.908986	0.411267	0.067855	-0.408639	-0.847135	-0.339672
00705														8.278876	0.613406	-2.934164	-0.082627	-0.336845	0.937928	-0.909269	0.410715	0.067401	-0.407925	-0.847259	-0.340219
00706														8.118729	0.554704	-2.970082	-0.082924	-0.337068	0.937821	-0.909630	0.409992	0.066927	-0.407058	-0.847521	-0.340605
00707														7.985691	0.597606	-3.050529	-0.083146	-0.337272	0.937728	-0.910008	0.409223	0.066497	-0.406168	-0.847811	-0.340946
00708														7.927685	0.554997	-3.095725	-0.083141	-0.337568	0.937622	-0.910475	0.408226	0.066238	-0.405121	-0.848174	-0.341287
00709														7.972000	0.448248	-3.148565	-0.082928	-0.338087	0.937454	-0.911008	0.407038	0.066208	-0.403964	-0.848538	-0.341755
00710														8.055346	0.266977	-3.269336	-0.082502	-0.338758	0.937249	-0.911585	0.405714	0.066398	-0.402748	-0.848904	-0.342279
00711														8.105078	0.095306	-3.365369	-0.081900	-0.339413	0.937065	-0.912141	0.404403	0.066757	-0.401611	-0.849268	-0.342713
00712														8.296328	0.152491	-3.512825	-0.081259	-0.340208	0.936833	-0.912652	0.403167	0.067248	-0.400578	-0.849538	-0.343253
00713														8.576462	0.155603	-3.616365	-0.080533	-0.341093	0.936574	-0.913069	0.402108	0.067932	-0.399775	-0.849685	-0.343824
00714														8.936164	0.248943	-3.614151	-0.079693	-0.342280	0.936212	-0.913430	0.401121	0.068897	-0.399116	-0.849674	-0.344615
00715														9.291554	0.253156	-3.563184	-0.078610	-0.343697	0.935785	-0.913713	0.400243	0.070246	-0.398684	-0.849516	-0.345503
00716														9.487761	0.166623	-3.604196	-0.077169	-0.345129	0.935377	-0.913919	0.399461	0.071992	-0.398494	-0.849304	-0.346246
00717														9.549464	0.122005	-3.697491	-0.075655	-0.346454	0.935011	-0.914091	0.398741	0.073785	-0.398390	-0.849103	-0.346858
00718														9.560638	0.169394	-3.694310	-0.074285	-0.347669	0.934670	-0.914220	0.398134	0.075434	-0.398350	-0.848891	-0.347421
00719														9.514119	0.335725	-3.613543	-0.073109	-0.348763	0.934355	-0.914308	0.397653	0.076890	-0.398366	-0.848667	-0.347949
00720														9.478642	0.484488	-3.560513	-0.072050	-0.349680	0.934095	-0.914306	0.397394	0.078242	-0.398563	-0.848411	-0.348347
00721														9.375645	0.607508	-3.518552	-0.071113	-0.350349	0.933916	-0.914186	0.397426	0.079479	-0.399008	-0.848120	-0.348547
00722														9.248393	0.714459	-3.455468	-0.070295	-0.350806	0.933806	-0.914022	0.397585	0.080556	-0.399527	-0.847857	-0.348593
00723														9.130140	0.844809	-3.484859	-0.069561	-0.351084	0.933757	-0.913804	0.397890	0.081528	-0.400155	-0.847599	-0.348499
00724														9.006006	0.954879	-3.442071	-0.068933	-0.351123	0.933788	-0.913552	0.398303	0.082330	-0.400839	-0.847389	-0.348225
00725														8.853109	1.083315	-3.420095	-0.068395	-0.350919	0.933905	-0.913270	0.398815	0.082973	-0.401572	-0.847232	-0.347760
00726														8.653567	1.187716	-3.381450	-0.067867	-0.350531	0.934089	-0.912968	0.399387	0.083543	-0.402348	-0.847123	-0.347129
00727														8.508644	1.246372	-3.399145	-0.067232	-0.349967	0.934346	-0.912641	0.400006	0.084155	-0.403196	-0.847064	-0.346288
00728														8.463968	1.268799	-3.314405	-0.066488	-0.349287	0.934654	-0.912338	0.400561	0.084792	-0.404003	-0.847083	-0.345301
00729														8.396802	1.244132	-3.294563	-0.065462	-0.348621	0.934975	-0.912087	0.400953	0.085643	-0.404738	-0.847172	-0.344219
00730														8.411112	1.149212	-3.286013	-0.064233	-0.347981	0.935299	-0.911893	0.401181	0.086635	-0.405371	-0.847327	-0.343090
00731														8.344075	1.126996	-3.265386	-0.062820	-0.347327	0.935637	-0.911773	0.401217	0.087722	-0.405862	-0.847578	-0.341888
00732														8.338320	1.072156	-3.221873	-0.061123	-0.346633	0.936007	-0.911680	0.401142	0.089021	-0.406330	-0.847898	-0.340537
00733														8.344174	1.003463	-3.206145	-0.059181	-0.345991	0.936370	-0.911630	0.400920	0.090524	-0.406730	-0.848265	-0.339142
00734														8.419935	0.968167	-3.199906	-0.057008	-0.345383	0.936729	-0.911588	0.400624	0.092237	-0.407133	-0.848653	-0.337685
00735														8.517294	0.810042	-3.199831	-0.054695	-0.344888	0.937049	-0.911535	0.400304	0.094129	-0.407568	-0.849005	-0.336272
00736														8.677915	0.713261	-3.227616	-0.052357	-0.344350	0.937380	-0.911492	0.399955	0.096014	-0.407972	-0.849388	-0.334812
00737														8.955818	0.586223	-3.378419	-0.050159	-0.343774	0.937712	-0.911421	0.399688	0.097777	-0.408405	-0.849746	-0.333371
00738														9.269114	0.450314	-3.552135	-0.048335	-0.342969	0.938102	-0.911404	0.399411	0.099065	-0.408665	-0.850202	-0.331889
00739														9.503154	0.339271	-3.648900	-0.047032	-0.341976	0.938531	-0.911462	0.399108	0.099749	-0.408687	-0.850744	-0.330469
00740														9.741876	0.320878	-3.693110	-0.046365	-0.340878	0.938963	-0.911513	0.398971	0.099831	-0.408649	-0.851249	-0.329213
00741														10.028065	0.499295	-3.703831	-0.046466	-0.339770	0.939360	-0.911440	0.399264	0.099330	-0.408802	-0.851554	-0.328232
00742														10.216955	0.798928	-3.744216	-0.047399	-0.338783	0.939670	-0.911171	0.400131	0.098300	-0.409294	-0.851540	-0.327655
00743														10.181881	1.006515	-3.709315	-0.048976	-0.337960	0.939885	-0.910733	0.401468	0.096901	-0.410082	-0.851238	-0.327454
00744														9.933670	1.148699	-3.564319	-0.050957	-0.337097	0.940090	-0.910080	0.403327	0.095294	-0.411287	-0.850701	-0.327337
00745														9.803341	1.209691	-3.325397	-0.053051	-0.335904	0.940401	-0.909286	0.405521	0.093554	-0.412778	-0.850130	-0.326946
00746														9.740784	1.162490	-3.206691	-0.055206	-0.334213	0.940879	-0.908479	0.407782	0.091545	-0.414269	-0.849715	-0.326137
00747														9.759933	0.995328	-3.133238	-0.057449	-0.332081	0.941500	-0.907628	0.410169	0.089290	-0.415825	-0.849402	-0.324970
00748														9.826357	0.977222	-3.161668	-0.059725	-0.329528	0.942255	-0.906851	0.412426	0.086754	-0.417199	-0.849303	-0.323464
00749														9.734868	1.066479	-3.123780	-0.061762	-0.326736	0.943095	-0.906151	0.414477	0.084253	-0.418420	-0.849383	-0.321672
00750														9.658013	1.187391	-3.073509	-0.063472	-0.323855	0.943975	-0.905587	0.416181	0.081891	-0.419386	-0.849653	-0.319695
00751														9.493012	1.239640	-3.104358	-0.064853	-0.321061	0.944835	-0.905133	0.417577	0.079767	-0.420152	-0.850029	-0.317684
00752														9.398917	1.241809	-3.014381	-0.065971	-0.318423	0.945650	-0.904786	0.418689	0.077863	-0.420727	-0.850474	-0.315726
00753														9.233529	1.257776	-2.982582	-0.066944	-0.315951	0.946411	-0.904525	0.419577	0.076091	-0.421133	-0.850958	-0.313874
00754														9.130191	1.247451	-2.953071	-0.067798	-0.313800	0.947066	-0.904322	0.420295	0.074522	-0.421432	-0.851400	-0.312271
00755														9.077782	1.187253	-2.960215	-0.068556	-0.312058	0.947586	-0.904221	0.420755	0.073144	-0.421527	-0.851813	-0.311015
00756														9.148041	1.110572	-2.908235	-0.069233	-0.310717	0.947978	-0.904182	0.421042	0.071969	-0.421500	-0.852161	-0.310095
00757														9.198806	0.995882	-2.949618	-0.069708	-0.309777	0.948251	-0.904234	0.421078	0.071087	-0.421309	-0.852485	-0.309463
00758														9.273472	0.856162	-2.946194	-0.069962	-0.309095	0.948454	-0.904383	0.420866	0.070447	-0.420947	-0.852837	-0.308985
00759														9.337526	0.699614	-2.874677	-0.069982	-0.308802	0.948548	-0.904608	0.420434	0.070133	-0.420460	-0.853157	-0.308767
00760														9.482792	0.640798	-2.843978	-0.069849	-0.308755	0.948573	-0.904873	0.419881	0.070038	-0.419912	-0.853446	-0.308713
00761														9.678873	0.612794	-2.851022	-0.069581	-0.308968	0.948524	-0.905140	0.419281	0.070176	-0.419380	-0.853664	-0.308833
00762														9.732155	0.607525	-2.847315	-0.069355	-0.309254	0.948447	-0.905359	0.418779	0.070345	-0.418944	-0.853807	-0.309030
00763														9.800179	0.593308	-2.896660	-0.069221	-0.309734	0.948300	-0.905525	0.418386	0.070554	-0.418609	-0.853826	-0.309433
00764														9.666654	0.554282	-2.955838	-0.069254	-0.310202	0.948145	-0.905634	0.418134	0.070651	-0.418368	-0.853779	-0.309887
00765														9.561256	0.493411	-2.991619	-0.069408	-0.310642	0.947990	-0.905662	0.418067	0.070685	-0.418281	-0.853652	-0.310354
00766														9.514747	0.477326	-3.006591	-0.069685	-0.310973	0.947861	-0.905606	0.418199	0.070624	-0.418357	-0.853466	-0.310762
00767														9.490935	0.467888	-3.016019	-0.070135	-0.311219	0.947747	-0.905467	0.418531	0.070430	-0.418581	-0.853214	-0.311153
00768														9.469636	0.544184	-3.051872	-0.070769	-0.311345	0.947658	-0.905287	0.418986	0.070049	-0.418865	-0.852945	-0.311508
00769														9.479867	0.604352	-3.087385	-0.071583	-0.311411	0.947575	-0.905060	0.419564	0.069514	-0.419216	-0.852637	-0.311880
00770														9.407572	0.649115	-3.086587	-0.072544	-0.311376	0.947514	-0.904786	0.420266	0.068837	-0.419642	-0.852303	-0.312217
00771														9.357973	0.700640	-3.080679	-0.073576	-0.311364	0.947438	-0.904537	0.420924	0.068088	-0.419999	-0.851983	-0.312610
00772														9.257566	0.764582	-3.103877	-0.074718	-0.311357	0.947351	-0.904315	0.421540	0.067220	-0.420276	-0.851681	-0.313061
00773														9.276751	0.798544	-3.145308	-0.075851	-0.311396	0.947248	-0.904138	0.422057	0.066347	-0.420453	-0.851411	-0.313559
00774														9.158327	0.865104	-3.094194	-0.076943	-0.311473	0.947135	-0.904019	0.422447	0.065485	-0.420511	-0.851189	-0.314082
00775														9.101264	0.817722	-3.143015	-0.077983	-0.311542	0.947027	-0.903938	0.422751	0.064637	-0.420494	-0.851013	-0.314582
00776														9.089399	0.786072	-3.181305	-0.078891	-0.311615	0.946928	-0.903925	0.422897	0.063859	-0.420352	-0.850914	-0.315039
00777														9.057044	0.793711	-3.186246	-0.079640	-0.311809	0.946801	-0.903940	0.422956	0.063256	-0.420179	-0.850813	-0.315540
00778														9.141738	0.726526	-3.247524	-0.080278	-0.311956	0.946699	-0.904020	0.422869	0.062685	-0.419885	-0.850803	-0.315962
00779														9.123583	0.684770	-3.238354	-0.080771	-0.312128	0.946600	-0.904146	0.422669	0.062221	-0.419520	-0.850839	-0.316348
00780														9.148407	0.693913	-3.260171	-0.081171	-0.312222	0.946535	-0.904307	0.422389	0.061779	-0.419094	-0.850944	-0.316630
00781														9.173527	0.622656	-3.277695	-0.081438	-0.312290	0.946490	-0.904488	0.422051	0.061430	-0.418651	-0.851086	-0.316834
00782														9.204280	0.604412	-3.279636	-0.081610	-0.312352	0.946454	-0.904679	0.421681	0.061157	-0.418205	-0.851247	-0.316992
00783														9.204001	0.520835	-3.277399	-0.081671	-0.312375	0.946442	-0.904862	0.421315	0.060973	-0.417797	-0.851420	-0.317066
00784														9.229176	0.491243	-3.230848	-0.081682	-0.312291	0.946469	-0.905037	0.420966	0.060793	-0.417416	-0.851623	-0.317020
00785														9.203740	0.475885	-3.211930	-0.081571	-0.312220	0.946501	-0.905171	0.420683	0.060761	-0.417148	-0.851789	-0.316928
00786														9.249622	0.489970	-3.200469	-0.081501	-0.311969	0.946590	-0.905263	0.420501	0.060643	-0.416961	-0.851971	-0.316686
00787														9.295774	0.504186	-3.188182	-0.081347	-0.311743	0.946678	-0.905321	0.420376	0.060637	-0.416864	-0.852115	-0.316424
00788														9.281947	0.513363	-3.134097	-0.081240	-0.311490	0.946770	-0.905349	0.420322	0.060601	-0.416825	-0.852234	-0.316154
00789														9.348190	0.489808	-3.155150	-0.081140	-0.311326	0.946833	-0.905337	0.420344	0.060629	-0.416871	-0.852283	-0.315962
00790														9.311968	0.532970	-3.172287	-0.081081	-0.311183	0.946885	-0.905311	0.420398	0.060638	-0.416938	-0.852309	-0.315804
00791														9.286134	0.477857	-3.087112	-0.081013	-0.311018	0.946945	-0.905236	0.420554	0.060684	-0.417115	-0.852292	-0.315615
00792														9.286613	0.477922	-3.085662	-0.080973	-0.310880	0.946994	-0.905155	0.420722	0.060719	-0.417297	-0.852260	-0.315461
00793														9.292522	0.530007	-3.069660	-0.080985	-0.310728	0.947042	-0.905053	0.420942	0.060718	-0.417517	-0.852206	-0.315316
00794														9.386402	0.566473	-3.072367	-0.081018	-0.310705	0.947047	-0.904969	0.421120	0.060741	-0.417693	-0.852127	-0.315296
00795														9.334858	0.619164	-3.039711	-0.081128	-0.310706	0.947037	-0.904887	0.421301	0.060704	-0.417848	-0.852037	-0.315334
00796														9.280768	0.625946	-3.045603	-0.081212	-0.310759	0.947013	-0.904763	0.421561	0.060745	-0.418101	-0.851889	-0.315399
00797														9.286025	0.597078	-3.027888	-0.081340	-0.310778	0.946996	-0.904644	0.421819	0.060727	-0.418333	-0.851755	-0.315454
00798														9.294418	0.574141	-3.033438	-0.081476	-0.310775	0.946985	-0.904518	0.422094	0.060698	-0.418580	-0.851619	-0.315492
00799														9.305877	0.557678	-3.062348	-0.081585	-0.310798	0.946968	-0.904378	0.422391	0.060714	-0.418860	-0.851464	-0.315539
00800														9.260332	0.542281	-3.073139	-0.081705	-0.310831	0.946947	-0.904234	0.422696	0.060728	-0.419147	-0.851300	-0.315601
00801														9.248593	0.557774	-3.045271	-0.081857	-0.310756	0.946958	-0.904084	0.423026	0.060670	-0.419441	-0.851164	-0.315577
00802														9.277589	0.577047	-3.086588	-0.081966	-0.310603	0.946999	-0.903939	0.423344	0.060612	-0.419733	-0.851061	-0.315466
00803														9.320791	0.545505	-3.113830	-0.082043	-0.310460	0.947039	-0.903798	0.423650	0.060584	-0.420022	-0.850961	-0.315351
00804														9.293060	0.565993	-3.136224	-0.082091	-0.310284	0.947093	-0.903659	0.423949	0.060567	-0.420312	-0.850877	-0.315193
00805														9.262351	0.580433	-3.134914	-0.082091	-0.310108	0.947150	-0.903525	0.424231	0.060588	-0.420599	-0.850800	-0.315016
00806														9.308270	0.595594	-3.123047	-0.082033	-0.309898	0.947224	-0.903409	0.424470	0.060633	-0.420859	-0.850757	-0.314786
00807														9.289328	0.675753	-3.153345	-0.081893	-0.309779	0.947275	-0.903326	0.424628	0.060769	-0.421065	-0.850722	-0.314606
00808														9.314854	0.730541	-3.108514	-0.081686	-0.309679	0.947326	-0.903262	0.424737	0.060960	-0.421242	-0.850704	-0.314417
00809														9.346432	0.798447	-3.110635	-0.081434	-0.309654	0.947356	-0.903234	0.424762	0.061197	-0.421350	-0.850701	-0.314280
00810														9.349567	0.806902	-3.133346	-0.081191	-0.309728	0.947353	-0.903213	0.424769	0.061466	-0.421444	-0.850670	-0.314237
00811														9.349276	0.809608	-3.133515	-0.080883	-0.309907	0.947320	-0.903222	0.424697	0.061818	-0.421482	-0.850641	-0.314266
00812														9.362262	0.720445	-3.055139	-0.080584	-0.310078	0.947290	-0.903243	0.424605	0.062150	-0.421495	-0.850625	-0.314292
00813														9.299413	0.672121	-3.052371	-0.080257	-0.310295	0.947246	-0.903260	0.424514	0.062531	-0.421522	-0.850591	-0.314347
00814														9.265401	0.644013	-3.091315	-0.079959	-0.310467	0.947215	-0.903268	0.424445	0.062871	-0.421560	-0.850562	-0.314373
00815														9.284629	0.648258	-3.063267	-0.079671	-0.310614	0.947191	-0.903271	0.424391	0.063194	-0.421608	-0.850536	-0.314381
00816														9.315614	0.636243	-3.063364	-0.079443	-0.310734	0.947171	-0.903234	0.424427	0.063482	-0.421731	-0.850474	-0.314383
00817														9.315530	0.557670	-3.059956	-0.079260	-0.310854	0.947147	-0.903188	0.424487	0.063735	-0.421863	-0.850401	-0.314404
00818														9.355083	0.522551	-3.065375	-0.079149	-0.311002	0.947108	-0.903155	0.424528	0.063927	-0.421955	-0.850326	-0.314484
00819														9.348349	0.591983	-3.023326	-0.079091	-0.311109	0.947078	-0.903144	0.424535	0.064035	-0.421990	-0.850283	-0.314553
00820														9.415781	0.615382	-3.009573	-0.079114	-0.311263	0.947025	-0.903151	0.424514	0.064078	-0.421970	-0.850237	-0.314702
00821														9.378424	0.658673	-3.029842	-0.079127	-0.311388	0.946983	-0.903161	0.424487	0.064115	-0.421946	-0.850205	-0.314822
00822														9.386539	0.636189	-3.036364	-0.079203	-0.311535	0.946928	-0.903160	0.424490	0.064113	-0.421935	-0.850149	-0.314987
00823														9.349311	0.598416	-3.053146	-0.079250	-0.311705	0.946868	-0.903147	0.424512	0.064157	-0.421955	-0.850076	-0.315157
00824														9.354348	0.569915	-3.036290	-0.079279	-0.311829	0.946825	-0.903132	0.424537	0.064197	-0.421981	-0.850018	-0.315280
00825														9.336833	0.534052	-3.024160	-0.079235	-0.311981	0.946779	-0.903129	0.424526	0.064307	-0.421995	-0.849968	-0.315396
00826														9.336109	0.615623	-3.029316	-0.079199	-0.312114	0.946738	-0.903119	0.424533	0.064408	-0.422024	-0.849916	-0.315499
00827														9.344775	0.635141	-3.100727	-0.079124	-0.312251	0.946699	-0.903137	0.424476	0.064522	-0.421998	-0.849894	-0.315592
00828														9.340494	0.669470	-3.017239	-0.079072	-0.312431	0.946644	-0.903152	0.424427	0.064639	-0.421976	-0.849852	-0.315733
00829														9.354620	0.660714	-3.070450	-0.078958	-0.312620	0.946591	-0.903187	0.424327	0.064801	-0.421922	-0.849832	-0.315859
00830														9.317040	0.705393	-3.090846	-0.078802	-0.312873	0.946520	-0.903243	0.424176	0.065013	-0.421832	-0.849815	-0.316026
00831														9.332814	0.702463	-3.041113	-0.078650	-0.313161	0.946438	-0.903288	0.424044	0.065245	-0.421763	-0.849775	-0.316226
00832														9.320903	0.680988	-3.076732	-0.078457	-0.313515	0.946337	-0.903331	0.423906	0.065546	-0.421707	-0.849713	-0.316466
00833														9.334625	0.673745	-3.130697	-0.078235	-0.313813	0.946256	-0.903383	0.423751	0.065841	-0.421639	-0.849680	-0.316645
00834														9.285698	0.695612	-3.184984	-0.078045	-0.314180	0.946150	-0.903432	0.423598	0.066139	-0.421567	-0.849621	-0.316901
00835														9.287236	0.663705	-3.145803	-0.077805	-0.314588	0.946034	-0.903492	0.423415	0.066493	-0.421483	-0.849561	-0.317171
00836														9.254720	0.681225	-3.148830	-0.077582	-0.314987	0.945920	-0.903568	0.423203	0.066816	-0.421362	-0.849519	-0.317445
00837														9.250591	0.677540	-3.128281	-0.077410	-0.315356	0.945811	-0.903637	0.423013	0.067084	-0.421246	-0.849477	-0.317713
00838														9.277999	0.699925	-3.173049	-0.077258	-0.315715	0.945704	-0.903698	0.422842	0.067336	-0.421142	-0.849428	-0.317979
00839														9.302264	0.675108	-3.129056	-0.077114	-0.316094	0.945589	-0.903759	0.422672	0.067589	-0.421038	-0.849372	-0.318266
00840														9.295326	0.705540	-3.150695	-0.077001	-0.316447	0.945480	-0.903820	0.422508	0.067803	-0.420929	-0.849322	-0.318544
00841														9.274306	0.665033	-3.116840	-0.076873	-0.316888	0.945342	-0.903885	0.422325	0.068066	-0.420811	-0.849249	-0.318896
00842														9.275915	0.673105	-3.143765	-0.076795	-0.317267	0.945222	-0.903944	0.422168	0.068261	-0.420700	-0.849185	-0.319212
00843														9.274660	0.674602	-3.147144	-0.076734	-0.317648	0.945099	-0.903998	0.422022	0.068444	-0.420593	-0.849116	-0.319537
00844														9.264675	0.698186	-3.145747	-0.076721	-0.318006	0.944979	-0.904022	0.421946	0.068599	-0.420545	-0.849019	-0.319857
00845														9.286144	0.666189	-3.078724	-0.076733	-0.318350	0.944863	-0.904051	0.421864	0.068719	-0.420480	-0.848931	-0.320176
00846														9.265246	0.665396	-3.110330	-0.076740	-0.318689	0.944748	-0.904076	0.421791	0.068845	-0.420426	-0.848840	-0.320487
00847														9.292603	0.645505	-3.090046	-0.076774	-0.318996	0.944641	-0.904097	0.421730	0.068935	-0.420373	-0.848755	-0.320782
00848														9.293791	0.692133	-3.055353	-0.076838	-0.319294	0.944535	-0.904127	0.421658	0.068988	-0.420298	-0.848679	-0.321082
00849														9.307242	0.682167	-3.110092	-0.076933	-0.319548	0.944442	-0.904141	0.421625	0.069005	-0.420251	-0.848599	-0.321353
00850														9.323040	0.718144	-3.126786	-0.077031	-0.319779	0.944356	-0.904170	0.421564	0.068997	-0.420171	-0.848543	-0.321608
00851														9.273969	0.696231	-3.115906	-0.077086	-0.320083	0.944248	-0.904201	0.421487	0.069060	-0.420094	-0.848466	-0.321910
00852														9.295525	0.704342	-3.114219	-0.077132	-0.320368	0.944148	-0.904232	0.421411	0.069122	-0.420019	-0.848397	-0.322191
00853														9.297322	0.710972	-3.140635	-0.077135	-0.320660	0.944048	-0.904261	0.421330	0.069227	-0.419954	-0.848326	-0.322460
00854														9.321723	0.725674	-3.162230	-0.077144	-0.320952	0.943948	-0.904281	0.421271	0.069335	-0.419911	-0.848245	-0.322729
00855														9.278596	0.676178	-3.132423	-0.077142	-0.321236	0.943852	-0.904293	0.421226	0.069453	-0.419886	-0.848161	-0.322986
00856														9.255549	0.629018	-3.200930	-0.077098	-0.321489	0.943770	-0.904315	0.421156	0.069589	-0.419846	-0.848100	-0.323197
00857														9.254227	0.670275	-3.141925	-0.077031	-0.321731	0.943693	-0.904339	0.421080	0.069739	-0.419807	-0.848046	-0.323390
00858														9.248020	0.659468	-3.223744	-0.076955	-0.321924	0.943633	-0.904376	0.420978	0.069865	-0.419740	-0.848023	-0.323536
00859														9.207340	0.697173	-3.220299	-0.076828	-0.322069	0.943594	-0.904402	0.420895	0.070024	-0.419707	-0.848009	-0.323616
00860														9.204133	0.692105	-3.197812	-0.076748	-0.322191	0.943559	-0.904397	0.420885	0.070154	-0.419732	-0.847968	-0.323690
00861														9.203779	0.692771	-3.198686	-0.076690	-0.322277	0.943534	-0.904413	0.420839	0.070232	-0.419710	-0.847958	-0.323745
00862														9.254749	0.680503	-3.171158	-0.076644	-0.322330	0.943520	-0.904418	0.420816	0.070293	-0.419706	-0.847949	-0.323774
00863														9.268338	0.710912	-3.162379	-0.076611	-0.322415	0.943493	-0.904430	0.420781	0.070352	-0.419686	-0.847934	-0.323839
00864														9.265358	0.704659	-3.139540	-0.076619	-0.322426	0.943489	-0.904453	0.420735	0.070332	-0.419635	-0.847953	-0.323856
00865														9.321872	0.703813	-3.159189	-0.076642	-0.322529	0.943452	-0.904484	0.420668	0.070334	-0.419565	-0.847946	-0.323963
00866														9.250402	0.714170	-3.216803	-0.076671	-0.322615	0.943420	-0.904507	0.420621	0.070328	-0.419511	-0.847937	-0.324057
00867														9.230279	0.711507	-3.245974	-0.076749	-0.322633	0.943407	-0.904538	0.420569	0.070242	-0.419430	-0.847956	-0.324112
00868														9.213062	0.714393	-3.171470	-0.076807	-0.322634	0.943402	-0.904576	0.420500	0.070161	-0.419337	-0.847990	-0.324144
00869														9.190395	0.705393	-3.176570	-0.076832	-0.322611	0.943408	-0.904621	0.420414	0.070093	-0.419235	-0.848041	-0.324142
00870														9.241240	0.732065	-3.214191	-0.076880	-0.322535	0.943430	-0.904664	0.420341	0.069983	-0.419134	-0.848107	-0.324101
00871														9.250198	0.708329	-3.218682	-0.076921	-0.322445	0.943458	-0.904710	0.420259	0.069869	-0.419025	-0.848181	-0.324046
00872														9.238904	0.723235	-3.190086	-0.076935	-0.322343	0.943491	-0.904755	0.420178	0.069777	-0.418926	-0.848260	-0.323968
00873														9.245146	0.693789	-3.170821	-0.076932	-0.322260	0.943520	-0.904791	0.420111	0.069715	-0.418849	-0.848325	-0.323898
00874														9.245340	0.692921	-3.170446	-0.076916	-0.322195	0.943544	-0.904826	0.420042	0.069673	-0.418776	-0.848384	-0.323838
00875														9.274694	0.631357	-3.207335	-0.076884	-0.322074	0.943588	-0.904832	0.420034	0.069644	-0.418769	-0.848434	-0.323716
00876														9.277340	0.677082	-3.168940	-0.076869	-0.321962	0.943627	-0.904862	0.419979	0.069584	-0.418707	-0.848503	-0.323615
00877														9.289164	0.660139	-3.196441	-0.076823	-0.321895	0.943654	-0.904883	0.419935	0.069580	-0.418671	-0.848551	-0.323537
00878														9.300422	0.683897	-3.163106	-0.076796	-0.321833	0.943677	-0.904903	0.419896	0.069561	-0.418633	-0.848594	-0.323474
00879														9.323176	0.691383	-3.158085	-0.076751	-0.321791	0.943695	-0.904926	0.419844	0.069565	-0.418590	-0.848635	-0.323421
00880														9.309367	0.660781	-3.167424	-0.076757	-0.321789	0.943695	-0.904931	0.419836	0.069556	-0.418580	-0.848640	-0.323422
00881														9.329064	0.662468	-3.139669	-0.076744	-0.321840	0.943679	-0.904936	0.419819	0.069585	-0.418570	-0.848629	-0.323464
00882														9.306259	0.654262	-3.144993	-0.076786	-0.321866	0.943666	-0.904927	0.419842	0.069566	-0.418582	-0.848607	-0.323503
00883														9.314748	0.631539	-3.150562	-0.076842	-0.321956	0.943631	-0.904910	0.419879	0.069569	-0.418609	-0.848555	-0.323606
00884														9.294504	0.629232	-3.180024	-0.076932	-0.322042	0.943594	-0.904865	0.419977	0.069561	-0.418689	-0.848474	-0.323714
00885														9.285280	0.650950	-3.176826	-0.077058	-0.322141	0.943550	-0.904827	0.420065	0.069520	-0.418748	-0.848393	-0.323852
00886														9.271002	0.619961	-3.187557	-0.077183	-0.322207	0.943518	-0.904775	0.420184	0.069477	-0.418837	-0.848309	-0.323956
00887														9.284407	0.649436	-3.179686	-0.077323	-0.322302	0.943474	-0.904718	0.420315	0.069438	-0.418936	-0.848208	-0.324092
00888														9.258554	0.634792	-3.162376	-0.077466	-0.322383	0.943434	-0.904653	0.420461	0.069395	-0.419049	-0.848105	-0.324216
00889														9.269703	0.617400	-3.191828	-0.077637	-0.322416	0.943409	-0.904596	0.420600	0.069299	-0.419141	-0.848024	-0.324310
00890														9.272014	0.622504	-3.216799	-0.077795	-0.322532	0.943356	-0.904486	0.420836	0.069294	-0.419348	-0.847862	-0.324465
00891														9.305156	0.654195	-3.181136	-0.077971	-0.322648	0.943302	-0.904373	0.421082	0.069274	-0.419558	-0.847696	-0.324627
00892														9.290563	0.623376	-3.192670	-0.078190	-0.322832	0.943221	-0.904263	0.421324	0.069245	-0.419756	-0.847505	-0.324869
00893														9.280941	0.645169	-3.190654	-0.078404	-0.323022	0.943138	-0.904128	0.421613	0.069240	-0.420005	-0.847289	-0.325110
00894														9.263467	0.608412	-3.179046	-0.078662	-0.323191	0.943059	-0.903975	0.421948	0.069202	-0.420287	-0.847058	-0.325348
00895														9.293936	0.593330	-3.181836	-0.078942	-0.323394	0.942966	-0.903804	0.422319	0.069172	-0.420603	-0.846796	-0.325623
00896														9.318353	0.606686	-3.203554	-0.079194	-0.323582	0.942880	-0.903630	0.422693	0.069164	-0.420929	-0.846537	-0.325873
00897														9.294805	0.598316	-3.210922	-0.079451	-0.323768	0.942795	-0.903459	0.423060	0.069149	-0.421247	-0.846283	-0.326124
00898														9.318962	0.652098	-3.171679	-0.079747	-0.323965	0.942702	-0.903280	0.423450	0.069109	-0.421576	-0.846012	-0.326400
00899														9.244110	0.656280	-3.207092	-0.079973	-0.324145	0.942621	-0.903096	0.423839	0.069129	-0.421928	-0.845748	-0.326630
00900														9.268613	0.669772	-3.228482	-0.080244	-0.324301	0.942544	-0.902903	0.424254	0.069104	-0.422289	-0.845481	-0.326856
00901														9.273820	0.640886	-3.212150	-0.080507	-0.324463	0.942466	-0.902710	0.424666	0.069089	-0.422650	-0.845212	-0.327084
00902														9.261804	0.616086	-3.247302	-0.080768	-0.324587	0.942401	-0.902527	0.425062	0.069052	-0.422992	-0.844965	-0.327280
00903														9.224396	0.617784	-3.202267	-0.081015	-0.324697	0.942342	-0.902349	0.425445	0.069016	-0.423324	-0.844730	-0.327458
00904														9.249173	0.590598	-3.284250	-0.081261	-0.324810	0.942282	-0.902154	0.425861	0.068996	-0.423692	-0.844477	-0.327635
00905														9.237252	0.606061	-3.257708	-0.081529	-0.324844	0.942247	-0.901963	0.426277	0.068918	-0.424046	-0.844254	-0.327751
00906														9.242047	0.617258	-3.306411	-0.081773	-0.324955	0.942188	-0.901780	0.426669	0.068890	-0.424389	-0.844013	-0.327928
00907														9.230064	0.632723	-3.280071	-0.082053	-0.325032	0.942137	-0.901587	0.427088	0.068821	-0.424744	-0.843771	-0.328089
00908														9.220779	0.654202	-3.277167	-0.082308	-0.325128	0.942081	-0.901388	0.427512	0.068789	-0.425117	-0.843519	-0.328254
00909														9.200132	0.651888	-3.307147	-0.082533	-0.325244	0.942022	-0.901200	0.427909	0.068784	-0.425471	-0.843273	-0.328427
00910														9.208196	0.629057	-3.313720	-0.082769	-0.325325	0.941973	-0.901014	0.428306	0.068752	-0.425820	-0.843041	-0.328573
00911														9.204935	0.622364	-3.292045	-0.083005	-0.325437	0.941913	-0.900844	0.428669	0.068723	-0.426134	-0.842813	-0.328750
00912														9.237683	0.693944	-3.322022	-0.083226	-0.325483	0.941878	-0.900703	0.428976	0.068653	-0.426388	-0.842639	-0.328865
00913														9.197144	0.730108	-3.318649	-0.083385	-0.325618	0.941817	-0.900587	0.429218	0.068661	-0.426602	-0.842463	-0.329037
00914														9.233195	0.767827	-3.306545	-0.083546	-0.325734	0.941763	-0.900451	0.429501	0.068673	-0.426857	-0.842274	-0.329191
00915														9.215839	0.731578	-3.294392	-0.083690	-0.325917	0.941687	-0.900326	0.429756	0.068724	-0.427094	-0.842074	-0.329398
00916														9.207073	0.673232	-3.287187	-0.083811	-0.326084	0.941618	-0.900208	0.429994	0.068783	-0.427319	-0.841888	-0.329581
00917														9.243749	0.630352	-3.270690	-0.083961	-0.326221	0.941557	-0.900098	0.430221	0.068794	-0.427520	-0.841718	-0.329753
00918														9.223074	0.628299	-3.300522	-0.084105	-0.326334	0.941505	-0.900006	0.430415	0.068788	-0.427685	-0.841576	-0.329903
00919														9.259226	0.665712	-3.288288	-0.084246	-0.326434	0.941458	-0.899937	0.430564	0.068760	-0.427803	-0.841461	-0.330043
00920														9.286618	0.684583	-3.332398	-0.084468	-0.326499	0.941416	-0.899870	0.430723	0.068642	-0.427901	-0.841354	-0.330189
00921														9.286114	0.723524	-3.273450	-0.084719	-0.326672	0.941333	-0.899793	0.430898	0.068555	-0.428013	-0.841197	-0.330442
00922														9.237316	0.700640	-3.261610	-0.084941	-0.326828	0.941259	-0.899737	0.431029	0.068470	-0.428088	-0.841069	-0.330671
00923														9.239123	0.705617	-3.287571	-0.085127	-0.326991	0.941185	-0.899698	0.431119	0.068407	-0.428132	-0.840960	-0.330894
00924														9.227206	0.720561	-3.261491	-0.085330	-0.327098	0.941130	-0.899693	0.431151	0.068277	-0.428103	-0.840902	-0.331077
00925														9.274494	0.740746	-3.278231	-0.085514	-0.327254	0.941059	-0.899700	0.431151	0.068177	-0.428050	-0.840841	-0.331300
00926														9.211083	0.768582	-3.280059	-0.085652	-0.327427	0.940986	-0.899736	0.431088	0.068105	-0.427947	-0.840806	-0.331521
00927														9.196246	0.737619	-3.291708	-0.085731	-0.327609	0.940916	-0.899781	0.430998	0.068082	-0.427837	-0.840781	-0.331727
00928														9.201626	0.708585	-3.275042	-0.085802	-0.327746	0.940862	-0.899828	0.430905	0.068044	-0.427723	-0.840776	-0.331888
00929														9.234776	0.699649	-3.301032	-0.085866	-0.327968	0.940778	-0.899856	0.430844	0.068067	-0.427652	-0.840720	-0.332119
00930														9.254767	0.620424	-3.270588	-0.085894	-0.328143	0.940715	-0.899902	0.430745	0.068086	-0.427550	-0.840703	-0.332295
00931														9.237554	0.583786	-3.258084	-0.085979	-0.328252	0.940669	-0.899919	0.430714	0.068046	-0.427496	-0.840676	-0.332432
00932														9.213341	0.615709	-3.329946	-0.086049	-0.328377	0.940619	-0.899935	0.430684	0.068027	-0.427448	-0.840643	-0.332578
00933														9.224357	0.639227	-3.298719	-0.086115	-0.328478	0.940578	-0.899955	0.430647	0.067999	-0.427393	-0.840622	-0.332701
00934														9.260369	0.636033	-3.347331	-0.086166	-0.328544	0.940550	-0.899979	0.430603	0.067965	-0.427333	-0.840619	-0.332785
00935														9.229712	0.609413	-3.282295	-0.086235	-0.328611	0.940520	-0.900000	0.430565	0.067916	-0.427273	-0.840612	-0.332880
00936														9.243114	0.598127	-3.335123	-0.086318	-0.328643	0.940502	-0.900009	0.430557	0.067849	-0.427238	-0.840604	-0.332946
00937														9.211599	0.611853	-3.335471	-0.086351	-0.328658	0.940493	-0.900006	0.430568	0.067829	-0.427239	-0.840592	-0.332974
00938														9.202875	0.633537	-3.331111	-0.086381	-0.328651	0.940493	-0.900018	0.430549	0.067790	-0.427208	-0.840604	-0.332983
00939														9.202805	0.632851	-3.331435	-0.086406	-0.328651	0.940491	-0.900019	0.430551	0.067767	-0.427201	-0.840604	-0.332994
00940														9.205308	0.638330	-3.355146	-0.086378	-0.328637	0.940498	-0.900044	0.430497	0.067766	-0.427152	-0.840637	-0.332973
00941														9.190545	0.688762	-3.369358	-0.086342	-0.328660	0.940493	-0.900058	0.430465	0.067799	-0.427132	-0.840644	-0.332980
00942														9.227897	0.646044	-3.351038	-0.086269	-0.328672	0.940496	-0.900063	0.430443	0.067866	-0.427135	-0.840651	-0.332959
00943														9.211262	0.610264	-3.336692	-0.086194	-0.328691	0.940496	-0.900057	0.430443	0.067946	-0.427163	-0.840643	-0.332942
00944														9.242524	0.596307	-3.337085	-0.086116	-0.328724	0.940492	-0.900029	0.430483	0.068053	-0.427236	-0.840610	-0.332933
00945														9.219727	0.588948	-3.341704	-0.086070	-0.328756	0.940485	-0.900015	0.430502	0.068120	-0.427276	-0.840588	-0.332939
00946														9.214639	0.577317	-3.294652	-0.086019	-0.328739	0.940495	-0.899978	0.430570	0.068187	-0.427364	-0.840560	-0.332895
00947														9.236969	0.545089	-3.351104	-0.085950	-0.328762	0.940494	-0.899924	0.430664	0.068302	-0.427492	-0.840502	-0.332876
00948														9.228954	0.487464	-3.341495	-0.085903	-0.328784	0.940490	-0.899825	0.430851	0.068432	-0.427710	-0.840398	-0.332859
00949														9.262689	0.479812	-3.365565	-0.085899	-0.328824	0.940476	-0.899698	0.431097	0.068553	-0.427978	-0.840256	-0.332873
00950														9.265340	0.527449	-3.328622	-0.085885	-0.328896	0.940453	-0.899539	0.431400	0.068721	-0.428313	-0.840072	-0.332906
00951														9.279044	0.559100	-3.320188	-0.085865	-0.329008	0.940415	-0.899369	0.431723	0.068923	-0.428675	-0.839862	-0.332970
00952														9.230703	0.539237	-3.306408	-0.085845	-0.329134	0.940373	-0.899164	0.432113	0.069158	-0.429109	-0.839613	-0.333040
00953														9.258030	0.560617	-3.349918	-0.085886	-0.329208	0.940343	-0.898962	0.432509	0.069312	-0.429525	-0.839379	-0.333092
00954														9.215152	0.592768	-3.322109	-0.085940	-0.329296	0.940308	-0.898717	0.432988	0.069494	-0.430026	-0.839098	-0.333154
00955														9.206206	0.616646	-3.317891	-0.085939	-0.329334	0.940294	-0.898475	0.433457	0.069700	-0.430532	-0.838841	-0.333149
00956														9.194403	0.594353	-3.351021	-0.085939	-0.329418	0.940265	-0.898206	0.433973	0.069946	-0.431091	-0.838541	-0.333181
00957														9.191534	0.590464	-3.328106	-0.085949	-0.329509	0.940232	-0.897920	0.434525	0.070200	-0.431686	-0.838219	-0.333220
00958														9.191163	0.592563	-3.328758	-0.085979	-0.329592	0.940200	-0.897622	0.435100	0.070442	-0.432299	-0.837888	-0.333259
00959														9.213531	0.602417	-3.324868	-0.086003	-0.329649	0.940178	-0.897317	0.435691	0.070681	-0.432928	-0.837558	-0.333271
00960														9.219290	0.576204	-3.306867	-0.086047	-0.329765	0.940134	-0.896984	0.436332	0.070952	-0.433608	-0.837179	-0.333339
00961														9.247739	0.557856	-3.284486	-0.086093	-0.329825	0.940108	-0.896644	0.436991	0.071200	-0.434302	-0.836812	-0.333358
00962														9.252347	0.572210	-3.332209	-0.086162	-0.329926	0.940067	-0.896274	0.437705	0.071468	-0.435051	-0.836399	-0.333417
00963														9.271967	0.576311	-3.305479	-0.086249	-0.330086	0.940002	-0.895908	0.438407	0.071746	-0.435786	-0.835968	-0.333539
00964														9.265086	0.607079	-3.325693	-0.086354	-0.330256	0.939933	-0.895541	0.439114	0.072012	-0.436520	-0.835530	-0.333677
00965														9.241616	0.601587	-3.331859	-0.086444	-0.330446	0.939858	-0.895191	0.439781	0.072287	-0.437219	-0.835104	-0.333829
00966														9.243757	0.650235	-3.295834	-0.086526	-0.330631	0.939785	-0.894847	0.440436	0.072564	-0.437907	-0.834685	-0.333973
00967														9.239242	0.687163	-3.339683	-0.086617	-0.330835	0.939705	-0.894516	0.441063	0.072830	-0.438564	-0.834273	-0.334141
00968														9.253233	0.638762	-3.327937	-0.086689	-0.331035	0.939628	-0.894186	0.441685	0.073111	-0.439222	-0.833864	-0.334296
00969														9.221015	0.655961	-3.329300	-0.086711	-0.331278	0.939540	-0.893857	0.442294	0.073456	-0.439888	-0.833445	-0.334467
00970														9.222527	0.665228	-3.354774	-0.086717	-0.331533	0.939450	-0.893549	0.442858	0.073805	-0.440512	-0.833044	-0.334644
00971														9.216218	0.615813	-3.371114	-0.086735	-0.331758	0.939369	-0.893249	0.443410	0.074123	-0.441117	-0.832661	-0.334802
00972														9.195629	0.657073	-3.339393	-0.086732	-0.331984	0.939289	-0.892938	0.443979	0.074468	-0.441747	-0.832268	-0.334948
00973														9.248782	0.653343	-3.337466	-0.086752	-0.332235	0.939199	-0.892653	0.444498	0.074785	-0.442318	-0.831890	-0.335132
00974														9.227670	0.654458	-3.367157	-0.086749	-0.332424	0.939132	-0.892380	0.444995	0.075085	-0.442869	-0.831549	-0.335252
00975														9.238500	0.680992	-3.335861	-0.086721	-0.332668	0.939048	-0.892137	0.445426	0.075409	-0.443363	-0.831220	-0.335413
00976														9.243346	0.615378	-3.380715	-0.086711	-0.332887	0.938972	-0.891887	0.445877	0.075710	-0.443868	-0.830891	-0.335560
00977														9.240046	0.611915	-3.359176	-0.086682	-0.333158	0.938878	-0.891642	0.446308	0.076050	-0.444366	-0.830551	-0.335745
00978														9.236073	0.568925	-3.399420	-0.086668	-0.333441	0.938779	-0.891375	0.446782	0.076399	-0.444904	-0.830183	-0.335943
00979														9.221006	0.541981	-3.411215	-0.086649	-0.333725	0.938680	-0.891110	0.447250	0.076751	-0.445438	-0.829816	-0.336140
00980														9.249111	0.524307	-3.390332	-0.086637	-0.333919	0.938612	-0.890806	0.447798	0.077083	-0.446048	-0.829443	-0.336253
00981														9.271001	0.535052	-3.387674	-0.086661	-0.334158	0.938525	-0.890498	0.448354	0.077408	-0.446657	-0.829046	-0.336422
00982														9.357870	0.523431	-3.410262	-0.086701	-0.334409	0.938431	-0.890144	0.448997	0.077760	-0.447356	-0.828597	-0.336601
00983														9.376521	0.488563	-3.446423	-0.086776	-0.334695	0.938323	-0.889753	0.449707	0.078124	-0.448118	-0.828096	-0.336820
00984														9.449718	0.486709	-3.417775	-0.086926	-0.334998	0.938200	-0.889301	0.450539	0.078476	-0.448985	-0.827521	-0.337078
00985														9.572070	0.465658	-3.339356	-0.087129	-0.335382	0.938045	-0.888761	0.451533	0.078886	-0.450015	-0.826824	-0.337416
00986														9.675538	0.410221	-3.374712	-0.087405	-0.335767	0.937881	-0.888174	0.452619	0.079268	-0.451118	-0.826073	-0.337781
00987														9.786548	0.404239	-3.269345	-0.087890	-0.336192	0.937683	-0.887475	0.453935	0.079567	-0.452397	-0.825178	-0.338259
00988														9.813363	0.385541	-3.253263	-0.088527	-0.336683	0.937447	-0.886684	0.455432	0.079834	-0.453822	-0.824152	-0.338849
00989														9.829589	0.301258	-3.207353	-0.089363	-0.337335	0.937134	-0.885773	0.457156	0.080095	-0.455435	-0.822930	-0.339655
00990														9.785567	0.171162	-3.182524	-0.090408	-0.338108	0.936755	-0.884689	0.459203	0.080360	-0.457331	-0.821472	-0.340636
00991														9.682579	0.082951	-3.204867	-0.091680	-0.339002	0.936308	-0.883435	0.461566	0.080613	-0.459496	-0.819777	-0.341803
00992														9.643497	-0.027289	-3.255472	-0.093181	-0.340059	0.935776	-0.881965	0.464318	0.080909	-0.462011	-0.817783	-0.343186
00993														9.573932	-0.165204	-3.243489	-0.094976	-0.341251	0.935162	-0.880264	0.467486	0.081190	-0.464882	-0.815478	-0.344790
00994														9.451175	-0.289959	-3.261453	-0.097157	-0.342598	0.934445	-0.878289	0.471147	0.081420	-0.468155	-0.812802	-0.346675
00995														9.352003	-0.450247	-3.214651	-0.099680	-0.344082	0.933634	-0.876043	0.475275	0.081627	-0.471819	-0.809766	-0.348806
00996														9.247033	-0.575344	-3.212913	-0.102675	-0.345722	0.932703	-0.873470	0.479966	0.081753	-0.475929	-0.806293	-0.351258
00997														9.140356	-0.701439	-3.215493	-0.106126	-0.347453	0.931672	-0.870579	0.485185	0.081776	-0.480447	-0.802416	-0.353976
00998														9.089614	-0.821219	-3.266982	-0.110084	-0.349333	0.930509	-0.867323	0.490991	0.081720	-0.485419	-0.798056	-0.357035
00999														9.046482	-0.874998	-3.353450	-0.114550	-0.351384	0.929197	-0.863682	0.497385	0.081617	-0.490848	-0.793182	-0.360460
01000														9.064446	-0.929577	-3.363213	-0.119531	-0.353569	0.927740	-0.859635	0.504372	0.081464	-0.496729	-0.787780	-0.364229
01001														9.092276	-0.910639	-3.430401	-0.125001	-0.355936	0.926112	-0.855151	0.511958	0.081339	-0.503082	-0.781798	-0.368374
01002														9.136041	-0.846458	-3.537993	-0.130974	-0.358545	0.924279	-0.850228	0.520102	0.081276	-0.509861	-0.775203	-0.372965
01003														9.191474	-0.750087	-3.483474	-0.137452	-0.361458	0.922201	-0.844863	0.528766	0.081326	-0.517024	-0.767955	-0.378062
01004														9.155281	-0.673677	-3.471789	-0.144344	-0.364616	0.919902	-0.839022	0.537948	0.081570	-0.524602	-0.760044	-0.383571
01005														9.119691	-0.588366	-3.486005	-0.151634	-0.367957	0.917396	-0.832738	0.547565	0.081980	-0.532499	-0.751519	-0.389441
01006														9.144633	-0.533131	-3.511705	-0.159318	-0.371439	0.914686	-0.825958	0.557649	0.082589	-0.540750	-0.742335	-0.395637
01007														9.129465	-0.459132	-3.481469	-0.167373	-0.374825	0.911862	-0.818686	0.568170	0.083278	-0.549308	-0.732590	-0.401960
01008														9.047465	-0.184936	-3.528565	-0.175641	-0.378068	0.908963	-0.810927	0.579065	0.084155	-0.558165	-0.722322	-0.408294
01009														8.914548	0.109683	-3.588327	-0.184097	-0.381103	0.906018	-0.802686	0.590285	0.085193	-0.567277	-0.711565	-0.414576
01010														8.814634	0.401173	-3.667354	-0.192594	-0.384005	0.903021	-0.794054	0.601661	0.086500	-0.576530	-0.700388	-0.420797
01011														8.683165	0.651823	-3.784579	-0.201075	-0.386705	0.900016	-0.785068	0.613121	0.088042	-0.585865	-0.688870	-0.426872
01012														8.611528	0.966445	-3.862543	-0.209403	-0.389102	0.897078	-0.775781	0.624577	0.089818	-0.595243	-0.677128	-0.432646
01013														8.566431	1.422879	-3.968333	-0.217509	-0.391155	0.894253	-0.766274	0.635925	0.091779	-0.604578	-0.665280	-0.438051
01014														8.495949	1.920959	-4.093377	-0.225284	-0.392953	0.891535	-0.756650	0.647029	0.093985	-0.613781	-0.653407	-0.443093
01015														8.506858	2.361406	-4.096529	-0.232659	-0.394586	0.888916	-0.746997	0.657790	0.096476	-0.622788	-0.641572	-0.447796
01016														8.495306	2.656982	-4.248936	-0.239561	-0.396111	0.886401	-0.737390	0.668131	0.099283	-0.631559	-0.629839	-0.452147
01017														8.455642	2.802356	-4.282574	-0.246024	-0.397524	0.883995	-0.727876	0.678031	0.102329	-0.640054	-0.618263	-0.456160
01018														8.527940	2.759411	-4.281925	-0.252011	-0.398829	0.881718	-0.718474	0.687488	0.105619	-0.648294	-0.606874	-0.459803
01019														8.624793	2.721005	-4.279066	-0.257726	-0.399886	0.879584	-0.709178	0.696570	0.108886	-0.656234	-0.595720	-0.463114
01020														8.631335	2.667993	-4.339502	-0.263110	-0.400676	0.877629	-0.700070	0.705222	0.112086	-0.663833	-0.584911	-0.466052
01021														8.670171	2.710719	-4.397500	-0.268241	-0.401218	0.875826	-0.691087	0.713530	0.115210	-0.671152	-0.574368	-0.468675
01022														8.652703	2.680170	-4.499396	-0.273125	-0.401567	0.874155	-0.682321	0.721430	0.118221	-0.678115	-0.564165	-0.471039
01023														8.687168	2.653011	-4.630448	-0.277779	-0.401751	0.872603	-0.673765	0.728950	0.121131	-0.684748	-0.554281	-0.473172
01024														8.749828	2.548211	-4.638769	-0.282240	-0.401734	0.871178	-0.665448	0.736097	0.123854	-0.691028	-0.544767	-0.475089
01025														8.765550	2.419031	-4.633340	-0.286564	-0.401591	0.869831	-0.657344	0.742909	0.126432	-0.696979	-0.535547	-0.476874
01026														8.681941	2.276482	-4.604002	-0.290776	-0.401201	0.868612	-0.649426	0.749445	0.128757	-0.702635	-0.526659	-0.478471
01027														8.564062	2.208856	-4.608182	-0.294894	-0.400503	0.867545	-0.641635	0.755775	0.130801	-0.708055	-0.518075	-0.479850
01028														8.496172	2.132201	-4.588312	-0.298930	-0.399501	0.866626	-0.633933	0.761940	0.132577	-0.713281	-0.509751	-0.481023
01029														8.435716	2.044533	-4.636622	-0.302925	-0.398263	0.865808	-0.626278	0.767973	0.134141	-0.718340	-0.501602	-0.482061
01030														8.368198	1.978987	-4.636426	-0.306872	-0.396823	0.865079	-0.618672	0.773872	0.135522	-0.723239	-0.493612	-0.482983
01031														8.308811	1.874491	-4.666551	-0.310794	-0.395200	0.864421	-0.611068	0.779676	0.136752	-0.728013	-0.485719	-0.483812
01032														8.211150	1.678963	-4.674490	-0.314684	-0.393352	0.863857	-0.603460	0.785396	0.137799	-0.732673	-0.477940	-0.484524
01033														8.091338	1.637510	-4.682812	-0.318481	-0.391293	0.863400	-0.595829	0.791040	0.138717	-0.737263	-0.470260	-0.485076
01034														8.063137	1.613760	-4.614784	-0.322307	-0.388918	0.863053	-0.588135	0.796665	0.139362	-0.741765	-0.462674	-0.485507
01035														8.037520	1.616078	-4.617136	-0.326001	-0.386268	0.862856	-0.580374	0.802250	0.139862	-0.746250	-0.455184	-0.485713
01036														8.028296	1.643363	-4.531818	-0.329644	-0.383484	0.862714	-0.572562	0.807771	0.140285	-0.750672	-0.447713	-0.485845
01037														8.114819	1.728600	-4.493674	-0.333202	-0.380599	0.862625	-0.564725	0.813204	0.140660	-0.755024	-0.440278	-0.485895
01038														8.247987	1.835528	-4.433978	-0.336632	-0.377597	0.862612	-0.556883	0.818538	0.140982	-0.759315	-0.432915	-0.485824
01039														8.359674	1.904437	-4.337600	-0.339967	-0.374527	0.862642	-0.549049	0.823765	0.141268	-0.763523	-0.425606	-0.485687
01040														8.404707	1.960281	-4.313922	-0.343272	-0.371393	0.862689	-0.541258	0.828872	0.141462	-0.767596	-0.418377	-0.485548
01041														8.450014	2.031366	-4.307201	-0.346481	-0.368222	0.862765	-0.533588	0.833810	0.141578	-0.771515	-0.411307	-0.485378
01042														8.514171	2.172031	-4.299378	-0.349567	-0.364981	0.862897	-0.526132	0.838541	0.141539	-0.775234	-0.404521	-0.485154
01043														8.601809	2.330345	-4.270342	-0.352470	-0.361630	0.863127	-0.518859	0.843092	0.141352	-0.778813	-0.398019	-0.484800
01044														8.667701	2.466901	-4.222537	-0.355181	-0.358204	0.863445	-0.511916	0.847391	0.140966	-0.782169	-0.391943	-0.484347
01045														8.746208	2.497593	-4.206112	-0.357685	-0.354693	0.863860	-0.505227	0.851486	0.140421	-0.785371	-0.386219	-0.483764
01046														8.806311	2.490204	-4.224770	-0.360004	-0.351157	0.864341	-0.498862	0.855344	0.139722	-0.788374	-0.380887	-0.483106
01047														8.862297	2.428733	-4.123291	-0.362182	-0.347691	0.864832	-0.492813	0.858969	0.138949	-0.791176	-0.375876	-0.482450
01048														8.898067	2.399792	-4.127380	-0.364241	-0.344271	0.865336	-0.487083	0.862373	0.138067	-0.793775	-0.371201	-0.481800
01049														8.878223	2.417640	-4.082994	-0.366202	-0.340937	0.865828	-0.481672	0.865560	0.137108	-0.796171	-0.366836	-0.481190
01050														8.889276	2.421554	-4.124081	-0.368111	-0.337724	0.866278	-0.476519	0.868562	0.136125	-0.798388	-0.362689	-0.480659
01051														8.904039	2.374531	-4.184602	-0.369934	-0.334612	0.866709	-0.471684	0.871360	0.135081	-0.800415	-0.358841	-0.480176
01052														8.989610	2.242834	-4.158406	-0.371779	-0.331709	0.867035	-0.467058	0.873999	0.134102	-0.802270	-0.355099	-0.479861
01053														8.976645	2.142079	-4.174858	-0.373657	-0.328945	0.867280	-0.462654	0.876489	0.133109	-0.803947	-0.351514	-0.479695
01054														9.006874	2.058717	-4.137891	-0.375574	-0.326257	0.867468	-0.458401	0.878876	0.132081	-0.805489	-0.348042	-0.479640
01055														8.937070	1.987258	-4.090993	-0.377506	-0.323582	0.867631	-0.454214	0.881206	0.131016	-0.806957	-0.344631	-0.479636
01056														8.869243	1.935685	-4.095994	-0.379459	-0.320985	0.867744	-0.450089	0.883473	0.129982	-0.808350	-0.341239	-0.479714
01057														8.774899	1.829657	-4.054570	-0.381486	-0.318406	0.867805	-0.445930	0.885730	0.128953	-0.809700	-0.337787	-0.479881
01058														8.798631	1.778391	-3.986496	-0.383580	-0.315809	0.867831	-0.441649	0.888018	0.127947	-0.811056	-0.334199	-0.480103
01059														8.851633	1.696827	-3.988443	-0.385750	-0.313197	0.867816	-0.437226	0.890343	0.126977	-0.812422	-0.330451	-0.480387
01060														8.778721	1.697997	-3.976768	-0.387939	-0.310625	0.867765	-0.432618	0.892708	0.126150	-0.813846	-0.326472	-0.480698
01061														8.708494	1.721016	-4.015349	-0.390134	-0.308028	0.867706	-0.427845	0.895112	0.125391	-0.815318	-0.322325	-0.481002
01062														8.710834	1.780638	-4.046500	-0.392351	-0.305357	0.867651	-0.422908	0.897559	0.124645	-0.816829	-0.318032	-0.481296
01063														8.759469	1.820316	-4.023736	-0.394612	-0.302647	0.867575	-0.417756	0.900063	0.123966	-0.818389	-0.313516	-0.481608
01064														8.761692	1.775182	-4.027358	-0.396873	-0.299962	0.867476	-0.412415	0.902596	0.123425	-0.820004	-0.308776	-0.481925
01065														8.830294	1.757054	-3.921150	-0.399186	-0.297215	0.867360	-0.406838	0.905190	0.122938	-0.821665	-0.303800	-0.482257
01066														8.853096	1.725144	-3.871428	-0.401577	-0.294490	0.867186	-0.401115	0.907796	0.122532	-0.823312	-0.298635	-0.482674
01067														8.877802	1.730028	-3.852965	-0.403953	-0.291545	0.867077	-0.395103	0.910490	0.122073	-0.825055	-0.293273	-0.482985
01068														8.929270	1.806176	-3.860199	-0.406382	-0.288555	0.866943	-0.388892	0.913215	0.121663	-0.826811	-0.287705	-0.483331
01069														8.910190	1.920804	-3.901385	-0.408826	-0.285497	0.866806	-0.382531	0.915951	0.121264	-0.828572	-0.282004	-0.483676
01070														8.866665	2.051511	-3.923705	-0.411344	-0.282392	0.866632	-0.376081	0.918673	0.120844	-0.830277	-0.276216	-0.484092
01071														8.800141	2.217164	-3.941924	-0.413835	-0.279229	0.866471	-0.369624	0.921351	0.120378	-0.831937	-0.270452	-0.484497
01072														8.736749	2.386814	-3.992534	-0.416336	-0.276017	0.866302	-0.363307	0.923938	0.119779	-0.833470	-0.264865	-0.484947
01073														8.720957	2.516804	-4.009080	-0.418721	-0.272815	0.866166	-0.357205	0.926401	0.119108	-0.834912	-0.259526	-0.485355
01074														8.756309	2.600117	-4.080272	-0.421098	-0.269605	0.866020	-0.351320	0.928751	0.118306	-0.836212	-0.254432	-0.485813
01075														8.735341	2.631884	-4.022044	-0.423458	-0.266474	0.865838	-0.345837	0.930925	0.117366	-0.837305	-0.249739	-0.486364
01076														8.692703	2.623442	-4.058569	-0.425818	-0.263341	0.865639	-0.340728	0.932952	0.116211	-0.838202	-0.245463	-0.486996
01077														8.646413	2.633510	-3.988334	-0.428044	-0.260187	0.865495	-0.335969	0.934842	0.114876	-0.838989	-0.241607	-0.487568
01078														8.527651	2.645329	-3.921133	-0.430197	-0.257022	0.865373	-0.331554	0.936602	0.113354	-0.839644	-0.238153	-0.488140
01079														8.508764	2.612867	-3.942827	-0.432179	-0.253866	0.865317	-0.327526	0.938219	0.111673	-0.840207	-0.235151	-0.488627
01080														8.515962	2.626571	-3.939040	-0.434075	-0.250745	0.865278	-0.323943	0.939684	0.109797	-0.840619	-0.232640	-0.489120
01081														8.499279	2.683411	-3.877879	-0.435873	-0.247689	0.865254	-0.320883	0.940973	0.107719	-0.840862	-0.230694	-0.489624
01082														8.460132	2.702099	-3.911322	-0.437535	-0.244650	0.865280	-0.318327	0.942103	0.105407	-0.840970	-0.229323	-0.490082
01083														8.500002	2.788202	-3.965909	-0.439029	-0.241711	0.865349	-0.316396	0.943031	0.102889	-0.840921	-0.228622	-0.490494
01084														8.538924	2.867242	-3.987373	-0.440461	-0.238826	0.865422	-0.314984	0.943799	0.100143	-0.840702	-0.228485	-0.490933
01085														8.569364	2.875403	-3.898920	-0.441791	-0.236110	0.865490	-0.314130	0.944382	0.097285	-0.840324	-0.228897	-0.491389
01086														8.547359	2.794422	-3.897564	-0.443026	-0.233479	0.865572	-0.313833	0.944792	0.094218	-0.839784	-0.229904	-0.491841
01087														8.521543	2.687429	-3.848185	-0.444127	-0.230885	0.865704	-0.313986	0.945060	0.090967	-0.839145	-0.231418	-0.492221
01088														8.473375	2.600574	-3.814033	-0.445131	-0.228248	0.865888	-0.314559	0.945201	0.087448	-0.838398	-0.233447	-0.492535
01089														8.478760	2.562302	-3.786929	-0.445930	-0.225618	0.866166	-0.315455	0.945232	0.083806	-0.837636	-0.235865	-0.492680
01090														8.453957	2.466168	-3.716360	-0.446657	-0.222858	0.866506	-0.316657	0.945172	0.079863	-0.836795	-0.238714	-0.492737
01091														8.432633	2.417877	-3.620566	-0.447216	-0.220139	0.866912	-0.318173	0.944995	0.075831	-0.835921	-0.241916	-0.492660
01092														8.439308	2.376602	-3.591230	-0.447641	-0.217325	0.867403	-0.319869	0.944750	0.071629	-0.835046	-0.245391	-0.492425
01093														8.479822	2.434499	-3.545773	-0.447872	-0.214480	0.867991	-0.321808	0.944409	0.067315	-0.834177	-0.249178	-0.491996
01094														8.524661	2.500689	-3.568540	-0.448050	-0.211623	0.868601	-0.323865	0.944008	0.062936	-0.833285	-0.253111	-0.491500
01095														8.658491	2.469905	-3.581261	-0.448076	-0.208873	0.869253	-0.326044	0.943533	0.058654	-0.832420	-0.257133	-0.490876
01096														8.949225	2.381782	-3.956682	-0.447971	-0.206159	0.869954	-0.328341	0.942992	0.054393	-0.831573	-0.261275	-0.490124
01097														9.539204	2.262970	-3.917217	-0.447954	-0.203461	0.870598	-0.330631	0.942428	0.050126	-0.830675	-0.265392	-0.489435
01098														9.796972	2.103057	-3.708536	-0.448114	-0.200837	0.871125	-0.332834	0.941866	0.045934	-0.829708	-0.269356	-0.488908
01099														9.703230	1.809096	-3.690029	-0.448349	-0.198214	0.871604	-0.334871	0.941336	0.041816	-0.828761	-0.273127	-0.488423
01100														9.515570	1.662249	-3.972783	-0.448672	-0.195351	0.872085	-0.336594	0.940899	0.037594	-0.827888	-0.276671	-0.487909
01101														9.624037	1.756377	-4.213153	-0.449016	-0.192327	0.872580	-0.338077	0.940528	0.033335	-0.827097	-0.280031	-0.487333
01102														9.651584	1.855738	-4.267063	-0.449474	-0.189217	0.873023	-0.339246	0.940247	0.029127	-0.826368	-0.283078	-0.486808
01103														9.594097	1.874965	-4.282250	-0.449926	-0.186287	0.873421	-0.340167	0.940026	0.025262	-0.825744	-0.285743	-0.486311
01104														9.318261	1.743648	-4.255957	-0.450582	-0.183446	0.873684	-0.340846	0.939872	0.021561	-0.825106	-0.288077	-0.486016
01105														8.827641	1.649204	-4.309739	-0.451169	-0.180741	0.873945	-0.341249	0.939797	0.018191	-0.824618	-0.290026	-0.485685
01106														8.607885	1.388858	-4.776243	-0.451769	-0.177919	0.874214	-0.341273	0.939846	0.014916	-0.824280	-0.291608	-0.485312
01107														8.738021	1.053187	-5.069026	-0.452323	-0.175170	0.874482	-0.341049	0.939970	0.011882	-0.824069	-0.292867	-0.484912
01108														8.954647	0.636414	-5.361115	-0.452936	-0.172263	0.874742	-0.340428	0.940228	0.008888	-0.823989	-0.293761	-0.484507
01109														9.109544	0.240493	-5.411579	-0.453698	-0.169193	0.874947	-0.339240	0.940681	0.005994	-0.824060	-0.294098	-0.484182
01110														8.993542	-0.150473	-5.514318	-0.454705	-0.165778	0.875078	-0.337337	0.941379	0.003053	-0.824286	-0.293808	-0.483972
01111														8.931404	-0.465852	-5.555915	-0.455746	-0.161969	0.875250	-0.334587	0.942365	0.000169	-0.824832	-0.292770	-0.483671
01112														8.867068	-0.606121	-5.584263	-0.456914	-0.157812	0.875400	-0.331115	0.943587	-0.002720	-0.825586	-0.291101	-0.483392
01113														8.878322	-0.590582	-5.682248	-0.457957	-0.153616	0.875601	-0.327002	0.945009	-0.005235	-0.826647	-0.288721	-0.483006
01114														8.998760	-0.630851	-5.673334	-0.458888	-0.149554	0.875817	-0.322287	0.946614	-0.007220	-0.827981	-0.285578	-0.482590
01115														9.063150	-0.812350	-5.506422	-0.459447	-0.145679	0.876177	-0.317001	0.948387	-0.008543	-0.829710	-0.281674	-0.481914
01116														8.951176	-1.026399	-5.389070	-0.459660	-0.141797	0.876702	-0.311086	0.950335	-0.009398	-0.831828	-0.277049	-0.480942
01117														8.770314	-1.220654	-5.308897	-0.459352	-0.137762	0.877506	-0.304564	0.952440	-0.009905	-0.834408	-0.271806	-0.479463
01118														8.481319	-1.195128	-5.265663	-0.458607	-0.133512	0.878552	-0.297559	0.954648	-0.010250	-0.837340	-0.266122	-0.477537
01119														8.282099	-1.144619	-5.367028	-0.457309	-0.129214	0.879871	-0.290268	0.956890	-0.010341	-0.840603	-0.260127	-0.475101
01120														8.129273	-1.079465	-5.321189	-0.455625	-0.124909	0.881364	-0.282828	0.959116	-0.010281	-0.844046	-0.253959	-0.472325
01121														8.137236	-1.106019	-5.305895	-0.453636	-0.120695	0.882976	-0.275290	0.961309	-0.010030	-0.847602	-0.247624	-0.469311
01122														8.222403	-1.036500	-5.428462	-0.451609	-0.116582	0.884566	-0.267748	0.963440	-0.009719	-0.851093	-0.241230	-0.466313
01123														8.476398	-1.121406	-5.538932	-0.449741	-0.112794	0.886008	-0.260402	0.965456	-0.009272	-0.854356	-0.234888	-0.463576
01124														8.682787	-1.119597	-5.469910	-0.448334	-0.109255	0.887164	-0.253239	0.967363	-0.008845	-0.857244	-0.228630	-0.461369
01125														8.745156	-1.062463	-5.375685	-0.447443	-0.106052	0.888002	-0.246324	0.969151	-0.008373	-0.859720	-0.222483	-0.459764
01126														8.700796	-1.034703	-5.318336	-0.447032	-0.103038	0.888564	-0.239512	0.970861	-0.007916	-0.861856	-0.216360	-0.458685
01127														8.666263	-1.021843	-5.495302	-0.447071	-0.100236	0.888865	-0.232723	0.972515	-0.007383	-0.863694	-0.210161	-0.458110
01128														8.780822	-1.130821	-5.366294	-0.447801	-0.097536	0.888797	-0.226003	0.974102	-0.006969	-0.865099	-0.203991	-0.458248
01129														8.968221	-1.181406	-5.085864	-0.449118	-0.094948	0.888413	-0.219243	0.975648	-0.006562	-0.866156	-0.197725	-0.458998
01130														9.103510	-1.282097	-4.984056	-0.450942	-0.092406	0.887757	-0.212318	0.977181	-0.006134	-0.866933	-0.191252	-0.460272
01131														9.067829	-1.361301	-4.918845	-0.453041	-0.089882	0.886947	-0.205210	0.978702	-0.005639	-0.867550	-0.184565	-0.461837
01132														8.876828	-1.468638	-4.914038	-0.455454	-0.087377	0.885961	-0.197990	0.980191	-0.005112	-0.867964	-0.177740	-0.463731
01133														8.588527	-1.435160	-4.876469	-0.457894	-0.084874	0.884946	-0.190557	0.981666	-0.004449	-0.868344	-0.170669	-0.465673
01134														8.355333	-1.377602	-4.827863	-0.460279	-0.082317	0.883950	-0.182861	0.983132	-0.003663	-0.868738	-0.163326	-0.467567
01135														8.132438	-1.389595	-4.790993	-0.462442	-0.079718	0.883059	-0.174917	0.984579	-0.002718	-0.869225	-0.155719	-0.469255
01136														8.070058	-1.355766	-4.709401	-0.464409	-0.076984	0.882268	-0.166742	0.985999	-0.001734	-0.869782	-0.147916	-0.470744
01137														8.008837	-1.344999	-4.755326	-0.466184	-0.074172	0.881573	-0.158393	0.987376	-0.000686	-0.870393	-0.139955	-0.472047
01138														8.042036	-1.351825	-4.742217	-0.467875	-0.071219	0.880921	-0.149826	0.988712	0.000358	-0.871003	-0.131817	-0.473264
01139														8.012717	-1.412704	-4.747453	-0.469406	-0.068084	0.880353	-0.141023	0.990005	0.001370	-0.871648	-0.123507	-0.474316
01140														7.990616	-1.438126	-4.689393	-0.470835	-0.064747	0.879842	-0.132055	0.991240	0.002277	-0.872282	-0.115115	-0.475260
01141														8.009187	-1.409270	-4.666736	-0.472149	-0.061417	0.879377	-0.122973	0.992405	0.003286	-0.872899	-0.106588	-0.476115
01142														8.021462	-1.312639	-4.679881	-0.473449	-0.058092	0.878903	-0.113827	0.993491	0.004349	-0.873435	-0.097983	-0.476980
01143														7.975878	-1.244062	-4.669080	-0.474672	-0.054841	0.878452	-0.104620	0.994497	0.005554	-0.873923	-0.089267	-0.477798
01144														8.006961	-1.171035	-4.612854	-0.475856	-0.051581	0.878009	-0.095289	0.995426	0.006835	-0.874346	-0.080412	-0.478595
01145														8.032807	-1.119578	-4.544327	-0.477021	-0.048299	0.877564	-0.085838	0.996276	0.008173	-0.874690	-0.071429	-0.479390
01146														8.091957	-1.045851	-4.573592	-0.478138	-0.044982	0.877132	-0.076322	0.997038	0.009527	-0.874962	-0.062389	-0.480155
01147														8.148732	-0.982790	-4.623537	-0.479216	-0.041588	0.876711	-0.066655	0.997717	0.010893	-0.875162	-0.053217	-0.480894
01148														8.249502	-0.852813	-4.574281	-0.480321	-0.038134	0.876264	-0.056922	0.998304	0.012244	-0.875244	-0.043998	-0.481676
01149														8.362545	-0.772733	-4.556777	-0.481426	-0.034741	0.875798	-0.047203	0.998792	0.013672	-0.875215	-0.034758	-0.482484
01150														8.478975	-0.682091	-4.571369	-0.482586	-0.031399	0.875285	-0.037473	0.999182	0.015183	-0.875047	-0.025472	-0.483368
01151														8.625119	-0.576749	-4.596124	-0.483805	-0.028178	0.874722	-0.027769	0.999473	0.016838	-0.874735	-0.016144	-0.484333
01152														8.679239	-0.523700	-4.611903	-0.485161	-0.025032	0.874067	-0.018056	0.999664	0.018607	-0.874239	-0.006755	-0.485450
01153														8.694238	-0.519792	-4.521099	-0.486517	-0.022066	0.873393	-0.008381	0.999753	0.020590	-0.873631	0.002698	-0.486581
01154														8.745143	-0.477036	-4.505458	-0.487914	-0.019186	0.872681	0.001387	0.999740	0.022755	-0.872890	0.012313	-0.487761
01155														8.813159	-0.458399	-4.534840	-0.489195	-0.016437	0.872020	0.011187	0.999622	0.025119	-0.872103	0.022043	-0.488826
01156														8.821892	-0.394402	-4.439746	-0.490450	-0.013772	0.871361	0.021079	0.999395	0.027660	-0.871214	0.031933	-0.489863
01157														8.831107	-0.326583	-4.397599	-0.491581	-0.011154	0.870760	0.030999	0.999060	0.030298	-0.870280	0.041886	-0.490773
01158														8.759293	-0.290979	-4.224302	-0.492613	-0.008593	0.870206	0.040973	0.998613	0.033055	-0.869283	0.051938	-0.491578
01159														8.760486	-0.254603	-4.192167	-0.493442	-0.006038	0.869758	0.051013	0.998054	0.035869	-0.868281	0.062068	-0.492174
01160														8.799104	-0.182441	-4.175941	-0.494083	-0.003467	0.869408	0.061062	0.997384	0.038679	-0.867268	0.072199	-0.492579
01161														8.742903	-0.095829	-4.121018	-0.494545	-0.000843	0.869152	0.071142	0.996605	0.041447	-0.866236	0.082330	-0.492806
01162														8.710858	-0.017646	-4.064747	-0.494934	0.001709	0.868929	0.081141	0.995720	0.044258	-0.865134	0.092410	-0.492954
01163														8.637126	0.081796	-3.980007	-0.495093	0.004268	0.868830	0.091164	0.994723	0.047062	-0.864044	0.102507	-0.492869
01164														8.566740	0.114176	-3.924579	-0.495175	0.006842	0.868767	0.101232	0.993612	0.049875	-0.862876	0.112644	-0.492704
01165														8.451243	0.152249	-3.810816	-0.495101	0.009368	0.868785	0.111309	0.992386	0.052731	-0.861676	0.122811	-0.492374
01166														8.361508	0.252692	-3.639688	-0.494870	0.011831	0.868887	0.121368	0.991047	0.055631	-0.860450	0.132985	-0.491875
01167														8.277282	0.312288	-3.583466	-0.494426	0.014243	0.869103	0.131503	0.989583	0.058594	-0.859215	0.143260	-0.491148
01168														8.298570	0.449888	-3.510456	-0.493898	0.016552	0.869362	0.141567	0.988009	0.061616	-0.857918	0.153505	-0.490319
01169														8.320390	0.471770	-3.279474	-0.493247	0.018892	0.869684	0.151660	0.986320	0.064590	-0.856566	0.163755	-0.489365
01170														8.215015	0.535370	-3.214939	-0.492490	0.021139	0.870062	0.161703	0.984521	0.067611	-0.855164	0.173989	-0.488284
01171														8.196339	0.481097	-3.187360	-0.491615	0.023428	0.870497	0.171767	0.982607	0.070560	-0.853704	0.184211	-0.487089
01172														8.268229	0.469910	-3.184277	-0.490707	0.025737	0.870944	0.181692	0.980613	0.073391	-0.852171	0.194257	-0.485870
01173														8.362496	0.498557	-3.092279	-0.489720	0.028169	0.871425	0.191637	0.978514	0.076065	-0.850558	0.204248	-0.484596
01174														8.429909	0.541315	-3.074028	-0.488706	0.030680	0.871909	0.201566	0.976314	0.078624	-0.848845	0.214171	-0.483314
01175														8.519828	0.635927	-3.017974	-0.487666	0.033348	0.872393	0.211520	0.974011	0.081007	-0.847019	0.224033	-0.482046
01176														8.564614	0.682493	-2.996301	-0.486689	0.036140	0.872828	0.221446	0.971613	0.083248	-0.845042	0.233800	-0.480876
01177														8.655124	0.711043	-2.979786	-0.485778	0.039103	0.873207	0.231389	0.969112	0.085327	-0.842899	0.243501	-0.479821
01178														8.733956	0.771985	-2.942092	-0.484926	0.042148	0.873539	0.241242	0.966532	0.087285	-0.840624	0.253061	-0.478864
01179														8.866135	0.760677	-2.903356	-0.484086	0.045308	0.873847	0.251072	0.963858	0.089111	-0.838226	0.262536	-0.477966
01180														9.020959	0.755838	-2.920355	-0.483318	0.048503	0.874100	0.260806	0.961104	0.090877	-0.835694	0.271894	-0.477169
01181														9.106647	0.739833	-2.826928	-0.482575	0.051753	0.874324	0.270440	0.958279	0.092544	-0.833057	0.281112	-0.476438
01182														9.241991	0.742739	-2.819151	-0.481828	0.055000	0.874538	0.279971	0.955379	0.094167	-0.830336	0.290218	-0.475727
01183														9.438869	0.773504	-2.823729	-0.480996	0.058202	0.874789	0.289441	0.952392	0.095782	-0.827567	0.299271	-0.474942
01184														9.621281	0.834264	-2.828055	-0.480191	0.061400	0.875012	0.298750	0.949355	0.097332	-0.824721	0.308148	-0.474215
01185														9.753946	0.870793	-2.747453	-0.479363	0.064495	0.875243	0.307989	0.946230	0.098957	-0.821799	0.317002	-0.473452
01186														9.832249	0.863202	-2.753634	-0.478556	0.067415	0.875465	0.317136	0.943015	0.100740	-0.818785	0.325851	-0.472665
01187														9.867047	0.798023	-2.724320	-0.477640	0.070198	0.875747	0.326238	0.939702	0.102608	-0.815738	0.334712	-0.471740
01188														9.885651	0.703462	-2.542768	-0.476754	0.072651	0.876030	0.335165	0.936318	0.104753	-0.812632	0.343556	-0.470743
01189														9.857565	0.591082	-2.451635	-0.475624	0.074736	0.876468	0.344083	0.932802	0.107181	-0.809561	0.352556	-0.469379
01190														9.816104	0.532858	-2.407884	-0.474317	0.076523	0.877022	0.352959	0.929172	0.109816	-0.806501	0.361640	-0.467731
01191														9.932996	0.415190	-2.386518	-0.472728	0.078083	0.877742	0.361817	0.925432	0.112539	-0.803503	0.370782	-0.465729
01192														10.021177	0.338299	-2.310136	-0.470951	0.079407	0.878578	0.370631	0.921586	0.115378	-0.800524	0.379966	-0.463452
01193														9.933147	0.329793	-2.178485	-0.468811	0.080489	0.879624	0.379358	0.917667	0.118215	-0.797687	0.389113	-0.460746
01194														9.676549	0.381674	-2.090252	-0.466411	0.081353	0.880819	0.388092	0.913627	0.121119	-0.794887	0.398330	-0.457698
01195														9.397281	0.412983	-2.093675	-0.463579	0.081960	0.882257	0.396681	0.909551	0.123940	-0.792300	0.407431	-0.454160
01196														9.511032	0.647157	-2.762278	-0.460346	0.082272	0.883919	0.404955	0.905527	0.126618	-0.789996	0.416235	-0.450172
01197														10.144946	0.989867	-2.777348	-0.456890	0.082487	0.885690	0.412616	0.901743	0.128868	-0.788036	0.424328	-0.446033
01198														10.512122	1.379395	-3.086322	-0.453404	0.082614	0.887468	0.419708	0.898183	0.130815	-0.786302	0.431790	-0.441914
01199														11.019947	1.665011	-3.436587	-0.449707	0.082747	0.889335	0.426257	0.894878	0.132281	-0.784901	0.438572	-0.437705
01200														11.271119	1.921211	-3.847535	-0.446311	0.083106	0.891011	0.432048	0.891957	0.133220	-0.783671	0.444417	-0.433996
01201														11.287127	2.172929	-4.573147	-0.443003	0.083425	0.892630	0.436985	0.889470	0.133741	-0.782810	0.449314	-0.430494
01202														11.358727	2.436564	-5.330109	-0.439886	0.083603	0.894154	0.441192	0.887340	0.134081	-0.782209	0.453474	-0.427213
01203														11.038680	2.845480	-5.583867	-0.437254	0.083753	0.895430	0.444717	0.885540	0.134335	-0.781688	0.456951	-0.424452
01204														10.389342	3.339132	-5.943373	-0.435115	0.083781	0.896468	0.447754	0.883951	0.134713	-0.781147	0.460013	-0.422134
01205														10.177236	3.773914	-6.390586	-0.433370	0.083262	0.897362	0.450326	0.882508	0.135596	-0.780639	0.462868	-0.419947
01206														10.334754	4.059059	-6.603110	-0.432373	0.082232	0.897937	0.452353	0.881236	0.137114	-0.780019	0.465469	-0.418220
01207														10.113400	4.303444	-6.534061	-0.432337	0.080626	0.898100	0.453684	0.880196	0.139381	-0.779266	0.467713	-0.417120
01208														9.626453	4.466204	-6.870234	-0.433373	0.078325	0.897804	0.454350	0.879336	0.142603	-0.778302	0.469717	-0.416668
01209														9.572033	4.159207	-7.436646	-0.435374	0.075637	0.897067	0.454511	0.878610	0.146508	-0.777090	0.471512	-0.416902
01210														9.699335	3.540979	-7.401207	-0.438235	0.073498	0.895850	0.454331	0.878077	0.150211	-0.775586	0.472841	-0.418197
01211														9.457428	2.839407	-7.191662	-0.441236	0.072200	0.894482	0.454060	0.877712	0.153136	-0.774041	0.473718	-0.420062
01212														9.080998	2.247206	-7.304634	-0.444081	0.071882	0.893099	0.453891	0.877461	0.155068	-0.772512	0.474232	-0.422290
01213														8.933266	1.985789	-7.142801	-0.446632	0.072642	0.891764	0.453882	0.877326	0.155857	-0.771045	0.474366	-0.424813
01214														8.407159	1.893645	-6.667101	-0.448937	0.074324	0.890467	0.454048	0.877269	0.155690	-0.769608	0.474210	-0.427585
01215														7.766771	1.907295	-6.507720	-0.450797	0.076394	0.889351	0.454440	0.877188	0.154999	-0.768288	0.474030	-0.430151
01216														7.459275	2.028102	-6.353268	-0.452437	0.078689	0.888318	0.454975	0.877081	0.154034	-0.767006	0.473853	-0.432626
01217														7.164212	2.083267	-6.005470	-0.453824	0.080982	0.887404	0.455632	0.876923	0.152988	-0.765796	0.473759	-0.434867
01218														6.774365	2.071235	-5.621099	-0.454797	0.083045	0.886715	0.456399	0.876699	0.151981	-0.764761	0.473816	-0.436622
01219														6.476135	2.108559	-5.288486	-0.455347	0.084759	0.886270	0.457236	0.876415	0.151102	-0.763933	0.474038	-0.437828
01220														6.354780	2.142089	-5.150435	-0.455550	0.085971	0.886049	0.457969	0.876145	0.150448	-0.763373	0.474320	-0.438500
01221														6.460242	2.200712	-5.137655	-0.455302	0.086681	0.886108	0.458557	0.875926	0.149931	-0.763168	0.474595	-0.438559
01222														6.524051	2.298190	-5.011640	-0.454741	0.086944	0.886370	0.458818	0.875867	0.149477	-0.763346	0.474656	-0.438184
01223														6.484315	2.412036	-4.915243	-0.453864	0.086719	0.886841	0.458698	0.875995	0.149092	-0.763940	0.474460	-0.437360
01224														6.589477	2.417496	-4.823568	-0.452748	0.086091	0.887473	0.458108	0.876372	0.148691	-0.764955	0.473878	-0.436214
01225														6.774353	2.446021	-4.788481	-0.451376	0.085133	0.888263	0.456934	0.877080	0.148132	-0.766467	0.472741	-0.434793
01226														6.901241	2.629590	-4.827566	-0.449827	0.083959	0.889161	0.455155	0.878136	0.147345	-0.768433	0.470986	-0.433224
01227														7.092722	2.707326	-4.885762	-0.448134	0.082622	0.890140	0.452738	0.879561	0.146288	-0.770846	0.468557	-0.431568
01228														7.236502	2.800980	-4.961244	-0.446457	0.081186	0.891115	0.449665	0.881351	0.144989	-0.773614	0.465434	-0.429992
01229														7.369081	2.943119	-4.909402	-0.444820	0.079652	0.892071	0.445857	0.883538	0.143431	-0.776754	0.461537	-0.428528
01230														7.448562	3.024738	-4.883835	-0.443298	0.078081	0.892967	0.441318	0.886107	0.141604	-0.780208	0.456856	-0.427268
01231														7.485039	2.937261	-4.893656	-0.441840	0.076469	0.893829	0.436133	0.888998	0.139535	-0.783942	0.451480	-0.426145
01232														7.551822	2.781951	-4.888689	-0.440449	0.074870	0.894650	0.430301	0.892202	0.137178	-0.787938	0.445388	-0.425186
01233														7.566118	2.614866	-4.680602	-0.439055	0.073266	0.895468	0.423853	0.895684	0.134535	-0.792199	0.438615	-0.424309
01234														7.599651	2.440388	-4.498898	-0.437541	0.071677	0.896337	0.416887	0.899384	0.131580	-0.796721	0.431243	-0.423398
01235														7.692935	2.321543	-4.418159	-0.435914	0.070019	0.897261	0.409431	0.903257	0.128426	-0.801465	0.423348	-0.422410
01236														7.715611	2.228704	-4.351178	-0.434232	0.068401	0.898200	0.401501	0.907287	0.125012	-0.806374	0.414913	-0.421436
01237														7.781214	2.142877	-4.386166	-0.432444	0.066672	0.899192	0.393142	0.911416	0.121493	-0.811438	0.406049	-0.420349
01238														7.951671	2.019078	-4.308782	-0.430610	0.064861	0.900204	0.384444	0.915585	0.117928	-0.816564	0.396860	-0.419195
01239														8.102432	1.928311	-4.275764	-0.428829	0.063043	0.901183	0.375522	0.919732	0.114352	-0.821638	0.387452	-0.418082
01240														8.283257	1.775707	-4.219800	-0.427180	0.061179	0.902095	0.366365	0.923846	0.110835	-0.826616	0.377842	-0.417062
01241														8.423147	1.643449	-4.108201	-0.425608	0.059281	0.902964	0.357055	0.927891	0.107379	-0.831486	0.368109	-0.416085
01242														8.479915	1.572059	-3.987848	-0.424162	0.057356	0.903768	0.347590	0.931862	0.103995	-0.836222	0.358252	-0.415197
01243														8.484743	1.443753	-3.884017	-0.422826	0.055310	0.904521	0.337990	0.935739	0.100777	-0.840821	0.348330	-0.414349
01244														8.440122	1.391828	-3.752978	-0.421581	0.053203	0.905229	0.328285	0.939516	0.097670	-0.845280	0.338349	-0.413547
01245														8.508068	1.392482	-3.758767	-0.420396	0.050977	0.905907	0.318514	0.943172	0.094736	-0.849597	0.328371	-0.412743
01246														8.594685	1.441809	-3.746143	-0.419349	0.048708	0.906518	0.308670	0.946717	0.091921	-0.853738	0.318362	-0.412039
01247														8.679564	1.432789	-3.804135	-0.418420	0.046327	0.907072	0.298820	0.950121	0.089316	-0.857690	0.308422	-0.411393
01248														8.790944	1.420734	-3.816107	-0.417715	0.043853	0.907519	0.288873	0.953416	0.086892	-0.861433	0.298454	-0.410924
01249														8.810037	1.370536	-3.792156	-0.417131	0.041277	0.907908	0.278832	0.956605	0.084616	-0.865017	0.288450	-0.410539
01250														8.801428	1.387539	-3.749451	-0.416728	0.038618	0.908210	0.268661	0.959698	0.082466	-0.868423	0.278367	-0.410309
01251														8.794180	1.336233	-3.650247	-0.416396	0.035867	0.908476	0.258356	0.962698	0.080408	-0.871703	0.268192	-0.410130
01252														8.765046	1.372996	-3.561496	-0.416222	0.033026	0.908663	0.247967	0.965584	0.078489	-0.874798	0.257987	-0.410087
01253														8.714537	1.360086	-3.514781	-0.416127	0.030101	0.908808	0.237497	0.968358	0.076673	-0.877743	0.247745	-0.410108
01254														8.687177	1.268093	-3.432886	-0.416109	0.027137	0.908910	0.226890	0.971037	0.074881	-0.880553	0.237381	-0.410215
01255														8.731892	1.239948	-3.441182	-0.416147	0.024097	0.908978	0.216358	0.973563	0.073243	-0.883182	0.227144	-0.410359
01256														8.785059	1.159840	-3.315834	-0.416298	0.020996	0.908986	0.205904	0.975938	0.071757	-0.885607	0.217036	-0.410604
01257														8.820383	1.034219	-3.203474	-0.416524	0.017870	0.908949	0.195577	0.978159	0.070393	-0.887838	0.207090	-0.410922
01258														8.898391	0.886822	-3.136925	-0.416776	0.014577	0.908892	0.185311	0.980237	0.069254	-0.889920	0.197291	-0.411240
01259														9.036833	0.766912	-3.102527	-0.417053	0.011226	0.908813	0.175188	0.982166	0.068262	-0.891838	0.187682	-0.411582
01260														9.142964	0.779889	-3.118743	-0.417356	0.007875	0.908709	0.165093	0.983979	0.067298	-0.893621	0.178109	-0.411970
01261														9.146015	0.872547	-3.071419	-0.417726	0.004447	0.908562	0.155044	0.985670	0.066459	-0.895247	0.168629	-0.412429
01262														9.139983	1.019677	-3.039031	-0.418092	0.000919	0.908404	0.144891	0.987265	0.065687	-0.896775	0.159083	-0.412901
01263														9.014169	1.119719	-3.038631	-0.418454	-0.002768	0.908234	0.134699	0.988748	0.065074	-0.898194	0.149568	-0.413372
01264														8.988161	1.293463	-3.042267	-0.418796	-0.006630	0.908056	0.124349	0.990135	0.064580	-0.899526	0.139962	-0.413840
01265														9.033669	1.459902	-3.001158	-0.419135	-0.010719	0.907861	0.113995	0.991396	0.064334	-0.900739	0.130457	-0.414307
01266														9.106799	1.551919	-3.095441	-0.419488	-0.015125	0.907635	0.103457	0.992550	0.064356	-0.901846	0.120898	-0.414798
01267														9.178393	1.571332	-3.092455	-0.419948	-0.019847	0.907331	0.092887	0.993571	0.064725	-0.902782	0.111460	-0.415405
01268														9.264014	1.484700	-3.005755	-0.420558	-0.024860	0.906925	0.082292	0.994459	0.065420	-0.903526	0.102146	-0.416182
01269														9.298238	1.306232	-3.011387	-0.421170	-0.030026	0.906485	0.071928	0.995198	0.066384	-0.904125	0.093160	-0.416988
01270														9.325732	1.188713	-3.007012	-0.421734	-0.035243	0.906035	0.061664	0.995816	0.067438	-0.904620	0.084311	-0.417796
01271														9.279363	1.078146	-2.970704	-0.422099	-0.040349	0.905651	0.051742	0.996308	0.068503	-0.905072	0.075776	-0.418453
01272														9.254283	1.033272	-2.955598	-0.422285	-0.045292	0.905331	0.042030	0.996698	0.069468	-0.905488	0.067386	-0.418987
01273														9.186834	1.102336	-2.951798	-0.422235	-0.049889	0.905113	0.032666	0.996999	0.070192	-0.905898	0.059204	-0.419338
01274														9.167837	1.262433	-2.880134	-0.421804	-0.054207	0.905065	0.023548	0.997220	0.070702	-0.906381	0.051135	-0.419355
01275														9.169725	1.397357	-2.852246	-0.421089	-0.058197	0.905151	0.014803	0.997366	0.071013	-0.906899	0.043302	-0.419118
01276														9.197733	1.542494	-2.777508	-0.420136	-0.061953	0.905344	0.006213	0.997447	0.071139	-0.907440	0.035513	-0.418679
01277														9.332781	1.622654	-2.655378	-0.418899	-0.065516	0.905666	-0.002164	0.997463	0.071156	-0.908030	0.027847	-0.417978
01278														9.412563	1.768680	-2.609076	-0.417515	-0.068949	0.906051	-0.010543	0.997417	0.071044	-0.908609	0.020109	-0.417163
01279														9.442775	1.943235	-2.466903	-0.415944	-0.072316	0.906510	-0.018942	0.997306	0.070867	-0.909193	0.012306	-0.416194
01280														9.425352	2.104012	-2.450881	-0.414303	-0.075623	0.906992	-0.027437	0.997127	0.070605	-0.909726	0.004366	-0.415187
01281														9.329282	2.249981	-2.453992	-0.412522	-0.078924	0.907522	-0.036043	0.996874	0.070311	-0.910234	-0.003705	-0.414077
01282														9.245543	2.356616	-2.415118	-0.410628	-0.082227	0.908088	-0.044748	0.996543	0.070002	-0.910704	-0.011890	-0.412888
01283														9.044648	2.421149	-2.299613	-0.408612	-0.085765	0.908670	-0.053609	0.996112	0.069911	-0.911132	-0.020147	-0.411621
01284														8.874478	2.410545	-2.500742	-0.406456	-0.089436	0.909283	-0.062497	0.995588	0.069988	-0.911531	-0.028380	-0.410252
01285														9.248203	2.297005	-2.558903	-0.404220	-0.093309	0.909890	-0.071407	0.994966	0.070311	-0.911870	-0.036551	-0.408849
01286														9.394692	2.076970	-2.281844	-0.402170	-0.097316	0.910378	-0.080289	0.994253	0.070813	-0.912038	-0.044614	-0.407672
01287														9.620587	1.860923	-2.903668	-0.399963	-0.101430	0.910901	-0.088998	0.993459	0.071545	-0.912200	-0.052452	-0.406374
01288														10.503908	1.534934	-3.505929	-0.397967	-0.105350	0.911331	-0.097508	0.992615	0.072166	-0.912203	-0.060142	-0.405300
01289														11.480657	1.206133	-3.472163	-0.396648	-0.109146	0.911459	-0.105744	0.991729	0.072741	-0.911860	-0.067529	-0.404909
01290														11.894212	0.754623	-3.309845	-0.396013	-0.112826	0.911287	-0.113630	0.990816	0.073293	-0.911187	-0.074525	-0.405196
01291														12.085222	0.274452	-3.989296	-0.395811	-0.116397	0.910926	-0.120808	0.989914	0.073997	-0.910351	-0.080758	-0.405881
01292														12.687974	0.062415	-5.020640	-0.396407	-0.119583	0.910254	-0.127172	0.989075	0.074555	-0.909224	-0.086204	-0.407284
01293														13.419939	-0.051637	-5.201733	-0.398115	-0.122604	0.909105	-0.132888	0.988283	0.075087	-0.907659	-0.090916	-0.409743
01294														13.124603	-0.476506	-4.963510	-0.400864	-0.125498	0.907501	-0.137959	0.987546	0.075627	-0.905690	-0.094882	-0.413186
01295														12.262241	-1.339802	-5.373434	-0.403998	-0.128010	0.905759	-0.142096	0.986923	0.076101	-0.903656	-0.097960	-0.416905
01296														11.497951	-2.300566	-5.387222	-0.407290	-0.129552	0.904064	-0.145160	0.986487	0.075968	-0.901689	-0.100293	-0.420592
01297														10.848731	-2.815591	-5.203667	-0.410364	-0.129806	0.902636	-0.147069	0.986281	0.074973	-0.899985	-0.101984	-0.423824
01298														10.589523	-2.709188	-5.355919	-0.412981	-0.128648	0.901608	-0.147889	0.986307	0.072993	-0.898652	-0.103193	-0.426351
01299														10.570687	-2.007125	-5.607791	-0.415435	-0.126432	0.900793	-0.147882	0.986506	0.070261	-0.897521	-0.104023	-0.428526
01300														10.610820	-1.266257	-5.861125	-0.418134	-0.124011	0.899881	-0.147741	0.986731	0.067331	-0.896290	-0.104796	-0.430908
01301														10.717647	-0.691256	-6.081808	-0.421203	-0.122109	0.898708	-0.147942	0.986874	0.064752	-0.894819	-0.105683	-0.433740
01302														10.648227	-0.353504	-5.908594	-0.424946	-0.121024	0.897092	-0.148875	0.986872	0.062614	-0.892893	-0.106947	-0.437384
01303														10.182955	-0.295866	-5.501747	-0.429232	-0.120853	0.895072	-0.150620	0.986708	0.060996	-0.890547	-0.108634	-0.441730
01304														9.587430	-0.347122	-5.336425	-0.434068	-0.121238	0.892685	-0.153123	0.986414	0.059511	-0.887772	-0.110859	-0.446735
01305														8.981852	-0.229906	-5.327524	-0.439268	-0.121848	0.890054	-0.156402	0.986001	0.057794	-0.884637	-0.113819	-0.452176
01306														8.261642	-0.046927	-5.293713	-0.444727	-0.122828	0.887204	-0.160645	0.985428	0.055900	-0.881142	-0.117664	-0.457978
01307														7.497139	0.146839	-5.345819	-0.450283	-0.124585	0.884152	-0.165937	0.984644	0.054236	-0.877332	-0.122291	-0.464041
01308														6.887011	0.130019	-5.300849	-0.455780	-0.127168	0.880961	-0.172278	0.983629	0.052857	-0.873261	-0.127679	-0.470227
01309														6.423041	-0.180720	-5.246155	-0.461000	-0.130557	0.877744	-0.179460	0.982397	0.051869	-0.869064	-0.133608	-0.476315
01310														6.079550	-0.545575	-5.272017	-0.466065	-0.134397	0.874483	-0.187285	0.980983	0.050949	-0.864701	-0.140032	-0.482373
01311														5.926889	-0.848987	-5.404121	-0.470841	-0.138459	0.871285	-0.195540	0.979422	0.049974	-0.860275	-0.146841	-0.488227
01312														6.001588	-1.162043	-5.692818	-0.475442	-0.142514	0.868127	-0.204167	0.977724	0.048691	-0.855728	-0.154093	-0.493948
01313														6.356101	-1.433302	-6.007188	-0.480037	-0.146470	0.864934	-0.212991	0.975920	0.047055	-0.850999	-0.161635	-0.499675
01314														6.722198	-1.605091	-6.128189	-0.484797	-0.150306	0.861615	-0.221952	0.974017	0.045031	-0.845996	-0.169407	-0.505561
01315														6.999784	-1.547485	-6.288488	-0.489833	-0.154086	0.858091	-0.231032	0.972010	0.042660	-0.840647	-0.177351	-0.511722
01316														7.189155	-1.545946	-6.257324	-0.495198	-0.157938	0.854304	-0.240108	0.969916	0.040133	-0.834941	-0.185252	-0.518223
01317														7.072232	-1.593317	-6.158483	-0.500798	-0.161992	0.850270	-0.248987	0.967772	0.037728	-0.828979	-0.192812	-0.524992
01318														6.747019	-1.704442	-6.106394	-0.506534	-0.166237	0.846043	-0.257649	0.965587	0.035469	-0.822825	-0.200016	-0.531933
01319														6.372091	-1.816979	-6.102065	-0.512166	-0.170625	0.841768	-0.266069	0.963376	0.033388	-0.816636	-0.206868	-0.538806
01320														6.129094	-1.867273	-6.188416	-0.517577	-0.174949	0.837560	-0.274163	0.961172	0.031348	-0.810524	-0.213403	-0.545445
01321														6.006029	-1.958738	-6.223059	-0.522603	-0.179016	0.833570	-0.281869	0.959007	0.029238	-0.804634	-0.219678	-0.551639
01322														6.065252	-1.981178	-6.336447	-0.527265	-0.182776	0.829810	-0.289184	0.956892	0.027019	-0.798977	-0.225721	-0.557391
01323														6.378948	-1.951834	-6.467919	-0.531581	-0.186273	0.826271	-0.296213	0.954803	0.024681	-0.793523	-0.231632	-0.562732
01324														6.807360	-1.842677	-6.495560	-0.535695	-0.189644	0.822840	-0.303116	0.952694	0.022233	-0.788131	-0.237506	-0.567838
01325														7.133911	-1.794490	-6.426192	-0.539681	-0.193048	0.819437	-0.309943	0.950549	0.019807	-0.782738	-0.243289	-0.572827
01326														7.313349	-1.739212	-6.372140	-0.543617	-0.196579	0.815988	-0.316758	0.948346	0.017439	-0.777267	-0.248990	-0.577805
01327														7.378736	-1.746303	-6.441117	-0.547506	-0.200286	0.812480	-0.323575	0.946081	0.015172	-0.771710	-0.254591	-0.582792
01328														7.476027	-1.725120	-6.442859	-0.551346	-0.204107	0.808924	-0.330348	0.943770	0.012973	-0.766086	-0.260074	-0.587770
01329														7.491201	-1.643492	-6.317690	-0.555100	-0.207988	0.805360	-0.336974	0.941451	0.010873	-0.760469	-0.265350	-0.592686
01330														7.402113	-1.577720	-6.256801	-0.558741	-0.211912	0.801812	-0.343476	0.939120	0.008851	-0.754873	-0.270457	-0.597511
01331														7.389422	-1.466104	-6.251793	-0.562185	-0.215835	0.798350	-0.349841	0.936783	0.006908	-0.749372	-0.275412	-0.602154
01332														7.340317	-1.296838	-6.190430	-0.565300	-0.219795	0.795064	-0.356192	0.934399	0.005057	-0.744018	-0.280336	-0.606505
01333														7.245006	-1.205493	-6.282314	-0.568134	-0.223882	0.791897	-0.362595	0.931941	0.003336	-0.738748	-0.285243	-0.610645
01334														7.256465	-1.109260	-6.296194	-0.570678	-0.228149	0.788844	-0.369140	0.929372	0.001743	-0.733527	-0.290199	-0.614591
01335														7.241899	-0.974352	-6.376943	-0.572970	-0.232560	0.785889	-0.375821	0.926692	0.000226	-0.728329	-0.295224	-0.618368
01336														7.272997	-1.070514	-6.479117	-0.574983	-0.237093	0.783059	-0.382588	0.923918	-0.001185	-0.723202	-0.300271	-0.621946
01337														7.360589	-1.188332	-6.498178	-0.576854	-0.241671	0.780278	-0.389405	0.921063	-0.002609	-0.718055	-0.305349	-0.625427
01338														7.352981	-1.295115	-6.505460	-0.578600	-0.246302	0.777532	-0.396300	0.918112	-0.004072	-0.712859	-0.310492	-0.628830
01339														7.345806	-1.351768	-6.564307	-0.580272	-0.250911	0.774809	-0.403154	0.915115	-0.005584	-0.707638	-0.315608	-0.632171
01340														7.315168	-1.229645	-6.556199	-0.581883	-0.255657	0.772044	-0.410017	0.912051	-0.007008	-0.702352	-0.320628	-0.635531
01341														7.310253	-1.191305	-6.462955	-0.583462	-0.260479	0.769235	-0.416877	0.908924	-0.008418	-0.696983	-0.325588	-0.638911
01342														7.140357	-1.216100	-6.259142	-0.584958	-0.265361	0.766425	-0.423655	0.905771	-0.009739	-0.691621	-0.330397	-0.642260
01343														6.939018	-1.223663	-6.136813	-0.586314	-0.270191	0.763697	-0.430333	0.902602	-0.011045	-0.686330	-0.335120	-0.645480
01344														6.869247	-1.233955	-6.151844	-0.587578	-0.274938	0.761026	-0.436876	0.899437	-0.012364	-0.681096	-0.339739	-0.648603
01345														6.955468	-1.268807	-6.098363	-0.588733	-0.279569	0.758443	-0.443349	0.896243	-0.013781	-0.675896	-0.344368	-0.651594
01346														7.116681	-1.258557	-6.075956	-0.589764	-0.284208	0.755913	-0.449875	0.892961	-0.015257	-0.670664	-0.349064	-0.654495
01347														7.092644	-1.194375	-5.996972	-0.590847	-0.288832	0.753310	-0.456417	0.889606	-0.016893	-0.665269	-0.353805	-0.657449
01348														7.105436	-1.173235	-6.149307	-0.591943	-0.293643	0.750585	-0.463175	0.886071	-0.018632	-0.659600	-0.358681	-0.660511
01349														7.170290	-1.220677	-6.235130	-0.593138	-0.298542	0.747703	-0.470105	0.882370	-0.020613	-0.653597	-0.363726	-0.663713
01350														7.274539	-1.212634	-6.405422	-0.594362	-0.303620	0.744680	-0.477256	0.878470	-0.022750	-0.647272	-0.368924	-0.667034
01351														7.257271	-1.162018	-6.405921	-0.595696	-0.308974	0.741405	-0.484665	0.874342	-0.025039	-0.640505	-0.374248	-0.670590
01352														7.147261	-1.101018	-6.360081	-0.597056	-0.314643	0.737919	-0.492328	0.869979	-0.027394	-0.633354	-0.379654	-0.674333
01353														7.087139	-1.125940	-6.419672	-0.598352	-0.320706	0.734249	-0.500215	0.865394	-0.029646	-0.625907	-0.385021	-0.678232
01354														7.025370	-1.233332	-6.450397	-0.599572	-0.327086	0.730430	-0.508221	0.860640	-0.031778	-0.618243	-0.390273	-0.682248
01355														6.947904	-1.348437	-6.423242	-0.600802	-0.333726	0.726405	-0.516376	0.855688	-0.033968	-0.610240	-0.395506	-0.686427
01356														6.842282	-1.398628	-6.435357	-0.601881	-0.340594	0.722312	-0.524572	0.850604	-0.036022	-0.602133	-0.400585	-0.690629
01357														6.830428	-1.404985	-6.490141	-0.602761	-0.347704	0.718179	-0.532887	0.845334	-0.037981	-0.593894	-0.405602	-0.694822
01358														6.820995	-1.463729	-6.643729	-0.603449	-0.355106	0.713967	-0.541295	0.839892	-0.039769	-0.585533	-0.410466	-0.699049
01359														6.793385	-1.576352	-6.621632	-0.603968	-0.362741	0.709677	-0.549787	0.834275	-0.041467	-0.577024	-0.415216	-0.703306
01360														6.736158	-1.692330	-6.626489	-0.604304	-0.370613	0.705311	-0.558278	0.828541	-0.042961	-0.568457	-0.419721	-0.707595
01361														6.669654	-1.867691	-6.668467	-0.604507	-0.378605	0.700877	-0.566664	0.822757	-0.044305	-0.559877	-0.423945	-0.711905
01362														6.620169	-2.017315	-6.753426	-0.604659	-0.386606	0.696365	-0.574910	0.816942	-0.045652	-0.551240	-0.427951	-0.716235
01363														6.602188	-2.150558	-6.920730	-0.604749	-0.394668	0.691749	-0.582990	0.811125	-0.046892	-0.542588	-0.431640	-0.720614
01364														6.637421	-2.244237	-7.073536	-0.604783	-0.402675	0.687089	-0.590832	0.805362	-0.048066	-0.534000	-0.435023	-0.724982
