// Start Time: Unknown
// Update Rate: 100.0Hz
// Filter Profile: human (46.1)
// Option Flags: AHS Disabled ICC Disabled 
// Firmware Version: 4.0.2
PacketCounter	SampleTimeFine	Year	Month	Day	Second	UTC_Nano	UTC_Year	UTC_Month	UTC_Day	UTC_Hour	UTC_Minute	UTC_Second	UTC_Valid	Acc_X	Acc_Y	Acc_Z	Mat[1][1]	Mat[2][1]	Mat[3][1]	Mat[1][2]	Mat[2][2]	Mat[3][2]	Mat[1][3]	Mat[2][3]	Mat[3][3]
00472														0.492747	-5.241669	-8.223521	0.856410	-0.513606	0.052645	-0.409092	-0.737252	-0.537683	0.314970	0.438941	-0.841502
00473														0.467609	-5.235732	-8.246785	0.856417	-0.513596	0.052619	-0.409099	-0.737255	-0.537674	0.314941	0.438947	-0.841509
00474														0.467650	-5.235054	-8.247214	0.856436	-0.513564	0.052617	-0.409086	-0.737290	-0.537636	0.314905	0.438926	-0.841534
00475														0.516352	-5.247353	-8.226166	0.856429	-0.513574	0.052630	-0.409095	-0.737295	-0.537622	0.314912	0.438904	-0.841542
00476														0.460528	-5.256712	-8.244931	0.856444	-0.513552	0.052623	-0.409088	-0.737318	-0.537596	0.314883	0.438893	-0.841559
00477														0.493535	-5.238156	-8.225712	0.856443	-0.513553	0.052612	-0.409111	-0.737337	-0.537552	0.314854	0.438859	-0.841587
00478														0.463023	-5.252685	-8.221698	0.856454	-0.513535	0.052617	-0.409097	-0.737353	-0.537541	0.314843	0.438854	-0.841595
00479														0.499045	-5.216288	-8.253865	0.856459	-0.513529	0.052593	-0.409115	-0.737367	-0.537507	0.314806	0.438837	-0.841617
00480														0.486272	-5.259055	-8.223932	0.856463	-0.513523	0.052594	-0.409118	-0.737383	-0.537484	0.314792	0.438817	-0.841633
00481														0.461016	-5.252970	-8.247289	0.856478	-0.513498	0.052581	-0.409124	-0.737421	-0.537426	0.314742	0.438782	-0.841670
00482														0.471179	-5.226456	-8.226820	0.856478	-0.513493	0.052631	-0.409117	-0.737464	-0.537373	0.314751	0.438716	-0.841700
00483														0.469030	-5.228127	-8.251528	0.856498	-0.513467	0.052569	-0.409133	-0.737475	-0.537345	0.314678	0.438727	-0.841722
00484														0.489798	-5.237884	-8.277393	0.856500	-0.513462	0.052581	-0.409119	-0.737473	-0.537360	0.314691	0.438737	-0.841712
00485														0.482339	-5.260413	-8.274597	0.856499	-0.513466	0.052551	-0.409143	-0.737475	-0.537339	0.314661	0.438729	-0.841728
00486														0.466195	-5.244536	-8.201067	0.856501	-0.513460	0.052582	-0.409126	-0.737489	-0.537332	0.314677	0.438713	-0.841730
00487														0.461956	-5.248924	-8.249812	0.856508	-0.513448	0.052575	-0.409131	-0.737509	-0.537301	0.314651	0.438693	-0.841750
00488														0.462297	-5.248175	-8.250269	0.856521	-0.513423	0.052616	-0.409102	-0.737547	-0.537270	0.314654	0.438658	-0.841767
00489														0.485794	-5.255069	-8.252153	0.856515	-0.513432	0.052620	-0.409128	-0.737571	-0.537218	0.314636	0.438607	-0.841801
00490														0.483029	-5.272325	-8.201172	0.856515	-0.513431	0.052633	-0.409125	-0.737580	-0.537208	0.314640	0.438594	-0.841806
00491														0.472967	-5.220224	-8.230673	0.856526	-0.513413	0.052634	-0.409134	-0.737623	-0.537142	0.314600	0.438542	-0.841848
00492														0.486648	-5.252571	-8.253693	0.856515	-0.513427	0.052673	-0.409139	-0.737642	-0.537113	0.314622	0.438494	-0.841864
00493														0.486981	-5.251828	-8.254146	0.856522	-0.513416	0.052667	-0.409144	-0.737661	-0.537082	0.314597	0.438474	-0.841884
00494														0.497070	-5.225563	-8.233504	0.856522	-0.513413	0.052699	-0.409138	-0.737687	-0.537051	0.314604	0.438435	-0.841902
00495														0.471926	-5.219605	-8.256756	0.856535	-0.513394	0.052680	-0.409138	-0.737702	-0.537030	0.314571	0.438432	-0.841916
00496														0.489867	-5.247270	-8.231243	0.856545	-0.513375	0.052685	-0.409124	-0.737718	-0.537019	0.314559	0.438426	-0.841923
00497														0.487817	-5.248994	-8.255899	0.856540	-0.513385	0.052689	-0.409150	-0.737742	-0.536966	0.314542	0.438375	-0.841957
00498														0.469648	-5.235431	-8.206686	0.856542	-0.513376	0.052738	-0.409131	-0.737773	-0.536938	0.314560	0.438333	-0.841972
00499														0.519283	-5.232182	-8.261256	0.856556	-0.513352	0.052737	-0.409118	-0.737794	-0.536920	0.314538	0.438326	-0.841983
00500														0.460397	-5.259664	-8.228582	0.856554	-0.513356	0.052733	-0.409128	-0.737797	-0.536908	0.314531	0.438316	-0.841991
00501														0.479119	-5.271587	-8.278801	0.856559	-0.513348	0.052729	-0.409143	-0.737828	-0.536853	0.314498	0.438273	-0.842026
00502														0.491345	-5.242712	-8.234059	0.856568	-0.513333	0.052736	-0.409140	-0.737856	-0.536817	0.314478	0.438244	-0.842049
00503														0.463779	-5.239079	-8.281591	0.856565	-0.513340	0.052710	-0.409174	-0.737870	-0.536773	0.314440	0.438213	-0.842079
00504														0.498977	-5.217865	-8.238270	0.856583	-0.513310	0.052711	-0.409172	-0.737916	-0.536710	0.314395	0.438169	-0.842119
00505														0.483943	-5.262995	-8.232741	0.856575	-0.513327	0.052679	-0.409212	-0.737918	-0.536678	0.314364	0.438147	-0.842141
00506														0.491470	-5.239172	-8.236304	0.856594	-0.513294	0.052678	-0.409199	-0.737953	-0.536639	0.314328	0.438126	-0.842166
00507														0.491287	-5.238397	-8.236808	0.856601	-0.513291	0.052609	-0.409238	-0.737951	-0.536612	0.314261	0.438133	-0.842188
00508														0.473284	-5.209338	-8.263160	0.856609	-0.513276	0.052616	-0.409235	-0.737979	-0.536576	0.314241	0.438104	-0.842210
00509														0.524008	-5.219066	-8.218059	0.856623	-0.513258	0.052569	-0.409254	-0.737995	-0.536539	0.314178	0.438097	-0.842237
00510														0.481208	-5.261486	-8.259488	0.856630	-0.513247	0.052559	-0.409264	-0.738018	-0.536500	0.314147	0.438072	-0.842262
00511														0.498429	-5.212161	-8.241913	0.856633	-0.513247	0.052520	-0.409294	-0.738027	-0.536466	0.314100	0.438058	-0.842286
00512														0.467726	-5.226716	-8.237966	0.856623	-0.513263	0.052512	-0.409321	-0.738029	-0.536441	0.314091	0.438034	-0.842302
00513														0.483334	-5.256861	-8.236695	0.856630	-0.513254	0.052489	-0.409326	-0.738032	-0.536433	0.314065	0.438040	-0.842309
00514														0.477913	-5.276733	-8.209933	0.856633	-0.513254	0.052444	-0.409362	-0.738044	-0.536390	0.314010	0.438020	-0.842339
00515														0.488307	-5.234821	-8.264864	0.856634	-0.513252	0.052435	-0.409372	-0.738051	-0.536372	0.313994	0.438009	-0.842351
00516														0.490628	-5.231762	-8.241063	0.856643	-0.513239	0.052423	-0.409371	-0.738062	-0.536358	0.313971	0.438007	-0.842361
00517														0.488350	-5.233644	-8.265607	0.856650	-0.513230	0.052401	-0.409376	-0.738065	-0.536350	0.313946	0.438013	-0.842367
00518														0.485502	-5.251305	-8.214501	0.856657	-0.513216	0.052418	-0.409355	-0.738075	-0.536353	0.313953	0.438013	-0.842365
00519														0.488572	-5.232671	-8.266210	0.856675	-0.513189	0.052388	-0.409349	-0.738085	-0.536343	0.313912	0.438027	-0.842373
00520														0.506406	-5.260290	-8.240826	0.856682	-0.513179	0.052377	-0.409360	-0.738107	-0.536304	0.313880	0.438001	-0.842398
00521														0.488404	-5.231270	-8.267106	0.856697	-0.513158	0.052330	-0.409367	-0.738112	-0.536292	0.313828	0.438018	-0.842409
00522														0.465151	-5.222962	-8.266094	0.856706	-0.513145	0.052319	-0.409366	-0.738123	-0.536278	0.313806	0.438015	-0.842418
00523														0.483216	-5.250571	-8.240713	0.856697	-0.513158	0.052337	-0.409384	-0.738140	-0.536241	0.313808	0.437970	-0.842441
00524														0.511609	-5.237019	-8.269741	0.856709	-0.513142	0.052294	-0.409392	-0.738141	-0.536234	0.313765	0.437988	-0.842448
00525														0.467545	-5.218573	-8.243137	0.856710	-0.513141	0.052286	-0.409401	-0.738148	-0.536216	0.313749	0.437976	-0.842460
00526														0.460130	-5.241007	-8.240492	0.856708	-0.513145	0.052282	-0.409410	-0.738152	-0.536204	0.313742	0.437966	-0.842468
00527														0.486215	-5.230054	-8.293593	0.856710	-0.513145	0.052255	-0.409421	-0.738143	-0.536209	0.313724	0.437981	-0.842466
00528														0.452673	-5.263057	-8.238099	0.856721	-0.513126	0.052260	-0.409407	-0.738159	-0.536197	0.313713	0.437976	-0.842474
00529														0.480933	-5.249589	-8.267071	0.856723	-0.513128	0.052204	-0.409438	-0.738151	-0.536185	0.313666	0.437988	-0.842485
00530														0.480830	-5.249021	-8.267438	0.856711	-0.513148	0.052208	-0.409458	-0.738147	-0.536175	0.313674	0.437970	-0.842491
00531														0.467617	-5.215256	-8.245232	0.856712	-0.513147	0.052200	-0.409466	-0.738155	-0.536157	0.313659	0.437959	-0.842502
00532														0.511659	-5.232553	-8.272564	0.856728	-0.513121	0.052192	-0.409448	-0.738166	-0.536155	0.313639	0.437970	-0.842504
00533														0.462439	-5.234691	-8.218780	0.856744	-0.513098	0.052164	-0.409453	-0.738188	-0.536122	0.313590	0.437960	-0.842527
00534														0.488512	-5.223521	-8.271998	0.856742	-0.513101	0.052160	-0.409462	-0.738192	-0.536110	0.313583	0.437950	-0.842535
00535														0.488482	-5.222895	-8.272395	0.856752	-0.513088	0.052128	-0.409473	-0.738201	-0.536088	0.313541	0.437949	-0.842551
00536														0.465387	-5.214631	-8.271339	0.856746	-0.513096	0.052135	-0.409476	-0.738198	-0.536090	0.313552	0.437945	-0.842549
00537														0.488663	-5.221997	-8.272951	0.856734	-0.513118	0.052128	-0.409490	-0.738175	-0.536111	0.313568	0.437959	-0.842536
00538														0.488720	-5.221572	-8.273216	0.856743	-0.513104	0.052116	-0.409489	-0.738186	-0.536097	0.313545	0.437956	-0.842546
00539														0.483497	-5.241704	-8.246340	0.856733	-0.513122	0.052098	-0.409510	-0.738170	-0.536104	0.313544	0.437963	-0.842543
00540														0.460452	-5.233633	-8.245159	0.856746	-0.513100	0.052102	-0.409485	-0.738174	-0.536116	0.313542	0.437981	-0.842535
00541														0.485982	-5.238452	-8.222675	0.856747	-0.513099	0.052095	-0.409493	-0.738182	-0.536099	0.313527	0.437969	-0.842546
00542														0.468146	-5.209571	-8.248795	0.856740	-0.513112	0.052085	-0.409509	-0.738173	-0.536099	0.313527	0.437968	-0.842547
00543														0.509200	-5.245064	-8.224775	0.856752	-0.513093	0.052070	-0.409507	-0.738189	-0.536080	0.313496	0.437965	-0.842560
00544														0.468365	-5.208303	-8.249583	0.856763	-0.513073	0.052094	-0.409491	-0.738222	-0.536046	0.313488	0.437932	-0.842580
00545														0.507193	-5.246090	-8.249824	0.856744	-0.513108	0.052055	-0.409542	-0.738199	-0.536039	0.313473	0.437929	-0.842587
00546														0.484257	-5.237867	-8.248733	0.856748	-0.513097	0.052103	-0.409512	-0.738219	-0.536034	0.313500	0.437909	-0.842587
00547														0.468795	-5.206652	-8.250601	0.856747	-0.513102	0.052060	-0.409535	-0.738205	-0.536036	0.313472	0.437927	-0.842588
00548														0.507311	-5.244746	-8.250672	0.856751	-0.513100	0.052024	-0.409543	-0.738186	-0.536056	0.313453	0.437960	-0.842578
00549														0.484077	-5.236596	-8.249550	0.856739	-0.513121	0.052008	-0.409574	-0.738182	-0.536039	0.313444	0.437944	-0.842590
00550														0.507195	-5.243812	-8.251273	0.856727	-0.513144	0.051993	-0.409596	-0.738161	-0.536050	0.313450	0.437953	-0.842583
00551														0.460893	-5.228032	-8.248688	0.856728	-0.513144	0.051967	-0.409606	-0.738152	-0.536055	0.313433	0.437967	-0.842582
00552														0.488771	-5.230604	-8.201927	0.856721	-0.513151	0.052004	-0.409589	-0.738147	-0.536075	0.313474	0.437966	-0.842567
00553														0.489436	-5.214434	-8.277675	0.856713	-0.513172	0.051939	-0.409631	-0.738115	-0.536087	0.313441	0.437997	-0.842564
00554														0.505075	-5.244870	-8.276300	0.856706	-0.513179	0.051975	-0.409614	-0.738110	-0.536106	0.313482	0.437996	-0.842549
00555														0.507460	-5.242243	-8.252253	0.856707	-0.513182	0.051932	-0.409625	-0.738084	-0.536133	0.313464	0.438036	-0.842535
00556														0.505037	-5.244362	-8.276624	0.856695	-0.513204	0.051917	-0.409647	-0.738064	-0.536145	0.313470	0.438045	-0.842528
00557														0.486361	-5.231622	-8.227000	0.856685	-0.513224	0.051881	-0.409670	-0.738030	-0.536174	0.313467	0.438078	-0.842512
00558														0.468295	-5.203116	-8.252859	0.856685	-0.513227	0.051856	-0.409670	-0.738005	-0.536208	0.313466	0.438117	-0.842492
00559														0.501758	-5.262014	-8.225674	0.856670	-0.513253	0.051834	-0.409696	-0.737977	-0.536227	0.313473	0.438134	-0.842481
00560														0.462779	-5.223358	-8.225968	0.856656	-0.513283	0.051783	-0.409733	-0.737934	-0.536258	0.313465	0.438172	-0.842464
00561														0.488694	-5.212705	-8.278807	0.856645	-0.513302	0.051776	-0.409735	-0.737899	-0.536304	0.313492	0.438208	-0.842435
00562														0.485630	-5.230883	-8.227513	0.856653	-0.513293	0.051727	-0.409738	-0.737876	-0.536334	0.313464	0.438258	-0.842419
00563														0.475250	-5.256201	-8.248831	0.856661	-0.513290	0.051623	-0.409767	-0.737830	-0.536375	0.313405	0.438339	-0.842399
00564														0.491865	-5.207677	-8.230670	0.856641	-0.513329	0.051566	-0.409810	-0.737774	-0.536419	0.313403	0.438386	-0.842375
00565														0.476519	-5.253589	-8.224843	0.856635	-0.513344	0.051519	-0.409838	-0.737748	-0.536433	0.313383	0.438413	-0.842369
00566														0.492002	-5.284182	-8.223393	0.856632	-0.513351	0.051506	-0.409832	-0.737716	-0.536482	0.313400	0.438458	-0.842339
00567														0.479070	-5.235060	-8.276387	0.856631	-0.513357	0.051447	-0.409855	-0.737685	-0.536506	0.313371	0.438503	-0.842327
00568														0.504112	-5.240196	-8.253758	0.856606	-0.513404	0.051403	-0.409903	-0.737635	-0.536540	0.313379	0.438533	-0.842308
00569														0.498454	-5.260478	-8.226858	0.856617	-0.513394	0.051325	-0.409934	-0.737629	-0.536523	0.313307	0.438555	-0.842323
00570														0.456817	-5.224252	-8.251309	0.856604	-0.513422	0.051254	-0.409962	-0.737557	-0.536601	0.313305	0.438642	-0.842278
00571														0.477292	-5.234148	-8.277067	0.856614	-0.513408	0.051224	-0.409971	-0.737567	-0.536580	0.313266	0.438642	-0.842293
00572														0.479303	-5.231292	-8.253193	0.856592	-0.513451	0.051169	-0.410026	-0.737523	-0.536599	0.313255	0.438666	-0.842285
00573														0.473660	-5.251647	-8.226249	0.856583	-0.513472	0.051105	-0.410068	-0.737491	-0.536611	0.313224	0.438696	-0.842281
00574														0.470906	-5.253767	-8.250630	0.856579	-0.513484	0.051046	-0.410094	-0.737455	-0.536640	0.313201	0.438741	-0.842266
00575														0.447405	-5.245817	-8.249375	0.856573	-0.513499	0.051000	-0.410122	-0.737429	-0.536655	0.313181	0.438768	-0.842259
00576														0.480149	-5.227765	-8.229816	0.856561	-0.513522	0.050985	-0.410144	-0.737408	-0.536667	0.313187	0.438777	-0.842252
00577														0.464966	-5.273514	-8.224095	0.856565	-0.513519	0.050931	-0.410161	-0.737389	-0.536680	0.313152	0.438811	-0.842247
00578														0.431222	-5.213928	-8.251668	0.856574	-0.513506	0.050920	-0.410160	-0.737400	-0.536665	0.313129	0.438808	-0.842257
00579														0.470026	-5.251883	-8.251880	0.856577	-0.513501	0.050914	-0.410156	-0.737396	-0.536674	0.313126	0.438820	-0.842252
00580														0.498363	-5.238475	-8.280756	0.856580	-0.513497	0.050896	-0.410161	-0.737395	-0.536671	0.313110	0.438827	-0.842255
00581														0.456561	-5.217872	-8.229796	0.856579	-0.513503	0.050856	-0.410183	-0.737381	-0.536675	0.313085	0.438844	-0.842255
00582														0.477382	-5.227566	-8.255665	0.856581	-0.513499	0.050868	-0.410168	-0.737378	-0.536689	0.313098	0.438854	-0.842245
00583														0.477497	-5.227213	-8.255882	0.856571	-0.513517	0.050852	-0.410188	-0.737361	-0.536697	0.313100	0.438861	-0.842241
00584														0.449047	-5.239803	-8.227537	0.856567	-0.513528	0.050812	-0.410212	-0.737343	-0.536705	0.313079	0.438880	-0.842239
00585														0.495261	-5.254882	-8.230626	0.856567	-0.513527	0.050818	-0.410201	-0.737332	-0.536727	0.313094	0.438897	-0.842224
00586														0.439281	-5.264598	-8.249155	0.856565	-0.513533	0.050795	-0.410213	-0.737319	-0.536737	0.313085	0.438913	-0.842219
00587														0.454033	-5.218100	-8.255354	0.856551	-0.513561	0.050746	-0.410258	-0.737292	-0.536740	0.313063	0.438926	-0.842220
00588														0.471860	-5.246031	-8.229934	0.856557	-0.513552	0.050746	-0.410250	-0.737296	-0.536740	0.313059	0.438930	-0.842220
00589														0.492714	-5.255538	-8.255921	0.856556	-0.513555	0.050725	-0.410269	-0.737299	-0.536722	0.313035	0.438921	-0.842233
00590														0.471918	-5.244927	-8.230635	0.856562	-0.513546	0.050725	-0.410261	-0.737303	-0.536722	0.313031	0.438925	-0.842233
00591														0.481731	-5.218966	-8.209754	0.856561	-0.513549	0.050704	-0.410280	-0.737306	-0.536703	0.313008	0.438916	-0.842246
00592														0.467209	-5.248515	-8.279742	0.856562	-0.513550	0.050670	-0.410298	-0.737299	-0.536699	0.312980	0.438926	-0.842251
00593														0.487162	-5.274001	-8.230214	0.856564	-0.513552	0.050618	-0.410327	-0.737291	-0.536688	0.312937	0.438937	-0.842261
00594														0.471236	-5.242903	-8.231963	0.856551	-0.513577	0.050584	-0.410351	-0.737253	-0.536721	0.312941	0.438972	-0.842242
00595														0.478797	-5.219380	-8.235215	0.856541	-0.513591	0.050607	-0.410366	-0.737271	-0.536686	0.312948	0.438926	-0.842263
00596														0.446008	-5.236432	-8.255411	0.856556	-0.513570	0.050582	-0.410361	-0.737277	-0.536681	0.312917	0.438940	-0.842268
00597														0.469059	-5.243608	-8.257196	0.856562	-0.513560	0.050566	-0.410362	-0.737281	-0.536675	0.312896	0.438945	-0.842272
00598														0.494536	-5.248456	-8.234769	0.856568	-0.513551	0.050566	-0.410354	-0.737285	-0.536675	0.312892	0.438949	-0.842272
00599														0.469164	-5.242502	-8.257892	0.856571	-0.513547	0.050551	-0.410368	-0.737299	-0.536645	0.312864	0.438931	-0.842292
00600														0.448398	-5.231854	-8.232630	0.856577	-0.513538	0.050551	-0.410360	-0.737303	-0.536645	0.312859	0.438934	-0.842292
00601														0.474443	-5.220688	-8.285727	0.856583	-0.513529	0.050535	-0.410362	-0.737306	-0.536640	0.312840	0.438939	-0.842297
00602														0.476922	-5.217564	-8.262017	0.856592	-0.513512	0.050561	-0.410357	-0.737351	-0.536582	0.312822	0.438883	-0.842332
00603														0.499935	-5.224613	-8.263885	0.856589	-0.513523	0.050486	-0.410392	-0.737315	-0.536604	0.312783	0.438931	-0.842322
00604														0.463921	-5.260341	-8.232586	0.856595	-0.513514	0.050486	-0.410385	-0.737319	-0.536605	0.312778	0.438934	-0.842322
00605														0.490028	-5.249109	-8.285711	0.856597	-0.513511	0.050483	-0.410389	-0.737328	-0.536589	0.312767	0.438923	-0.842332
00606														0.473846	-5.233856	-8.212023	0.856600	-0.513507	0.050466	-0.410394	-0.737327	-0.536586	0.312751	0.438929	-0.842335
00607														0.440942	-5.251071	-8.232128	0.856595	-0.513516	0.050457	-0.410407	-0.737323	-0.536583	0.312748	0.438926	-0.842338
00608														0.461907	-5.260679	-8.258038	0.856597	-0.513512	0.050469	-0.410393	-0.737320	-0.536598	0.312761	0.438936	-0.842328
00609														0.464320	-5.257923	-8.234108	0.856604	-0.513502	0.050453	-0.410393	-0.737324	-0.536592	0.312742	0.438941	-0.842332
00610														0.471730	-5.234420	-8.237332	0.856602	-0.513508	0.050431	-0.410405	-0.737310	-0.536602	0.312732	0.438957	-0.842327
00611														0.494739	-5.241584	-8.239133	0.856611	-0.513495	0.050403	-0.410413	-0.737320	-0.536581	0.312695	0.438956	-0.842342
00612														0.446262	-5.228070	-8.260695	0.856603	-0.513507	0.050423	-0.410409	-0.737310	-0.536598	0.312724	0.438958	-0.842330
00613														0.497165	-5.238407	-8.215472	0.856600	-0.513515	0.050384	-0.410432	-0.737295	-0.536602	0.312701	0.438974	-0.842330
00614														0.464197	-5.255667	-8.235555	0.856605	-0.513506	0.050384	-0.410424	-0.737299	-0.536602	0.312697	0.438977	-0.842330
00615														0.469361	-5.234441	-8.262993	0.856600	-0.513518	0.050359	-0.410447	-0.737291	-0.536596	0.312681	0.438979	-0.842335
00616														0.464186	-5.254806	-8.236105	0.856584	-0.513545	0.050356	-0.410463	-0.737263	-0.536623	0.312705	0.438993	-0.842318
00617														0.476718	-5.210744	-8.266331	0.856601	-0.513520	0.050314	-0.410454	-0.737257	-0.536637	0.312668	0.439032	-0.842312
00618														0.469102	-5.233453	-8.263633	0.856612	-0.513503	0.050301	-0.410442	-0.737257	-0.536647	0.312655	0.439053	-0.842306
00619														0.491989	-5.240588	-8.265462	0.856617	-0.513501	0.050239	-0.410477	-0.737255	-0.536622	0.312595	0.439058	-0.842326
00620														0.461319	-5.255343	-8.261467	0.856606	-0.513517	0.050260	-0.410484	-0.737257	-0.536615	0.312615	0.439037	-0.842329
00621														0.463762	-5.252433	-8.237642	0.856605	-0.513521	0.050241	-0.410503	-0.737260	-0.536597	0.312594	0.439027	-0.842342
00622														0.489122	-5.257284	-8.215251	0.856603	-0.513526	0.050218	-0.410514	-0.737246	-0.536606	0.312585	0.439043	-0.842337
00623														0.471169	-5.228431	-8.241166	0.856612	-0.513511	0.050221	-0.410501	-0.737256	-0.536603	0.312577	0.439045	-0.842339
00624														0.471405	-5.227913	-8.241481	0.856602	-0.513527	0.050242	-0.410508	-0.737257	-0.536596	0.312597	0.439024	-0.842343
00625														0.463970	-5.250421	-8.238913	0.856618	-0.513503	0.050203	-0.410509	-0.737264	-0.536586	0.312551	0.439040	-0.842351
00626														0.471372	-5.226913	-8.242118	0.856608	-0.513520	0.050205	-0.410518	-0.737249	-0.536600	0.312568	0.439046	-0.842342
00627														0.469307	-5.228775	-8.266583	0.856601	-0.513529	0.050228	-0.410518	-0.737256	-0.536589	0.312585	0.439023	-0.842347
00628														0.462053	-5.251376	-8.263948	0.856601	-0.513529	0.050223	-0.410517	-0.737248	-0.536601	0.312587	0.439036	-0.842340
00629														0.464509	-5.248655	-8.240008	0.856599	-0.513532	0.050233	-0.410515	-0.737250	-0.536601	0.312596	0.439030	-0.842340
00630														0.485445	-5.258279	-8.265899	0.856593	-0.513542	0.050222	-0.410520	-0.737230	-0.536625	0.312605	0.439052	-0.842325
00631														0.459537	-5.268636	-8.213387	0.856593	-0.513542	0.050220	-0.410526	-0.737237	-0.536610	0.312596	0.439040	-0.842335
00632														0.464885	-5.247350	-8.240818	0.856601	-0.513528	0.050238	-0.410505	-0.737247	-0.536612	0.312603	0.439040	-0.842332
00633														0.485969	-5.256743	-8.266845	0.856596	-0.513536	0.050250	-0.410515	-0.737259	-0.536588	0.312604	0.439010	-0.842347
00634														0.470410	-5.225469	-8.268610	0.856607	-0.513519	0.050237	-0.410503	-0.737259	-0.536597	0.312590	0.439031	-0.842342
00635														0.477347	-5.218072	-8.196337	0.856595	-0.513538	0.050226	-0.410530	-0.737255	-0.536582	0.312585	0.439014	-0.842352
00636														0.463088	-5.247446	-8.266387	0.856595	-0.513537	0.050239	-0.410527	-0.737264	-0.536572	0.312589	0.439001	-0.842358
00637														0.465644	-5.244510	-8.242583	0.856591	-0.513542	0.050252	-0.410535	-0.737277	-0.536548	0.312589	0.438972	-0.842373
00638														0.494239	-5.230707	-8.271585	0.856610	-0.513509	0.050280	-0.410502	-0.737311	-0.536526	0.312583	0.438953	-0.842384
00639														0.476045	-5.217762	-8.222132	0.856604	-0.513518	0.050293	-0.410512	-0.737323	-0.536501	0.312585	0.438924	-0.842399
00640														0.510322	-5.260063	-8.271016	0.856624	-0.513487	0.050273	-0.410501	-0.737342	-0.536485	0.312547	0.438928	-0.842411
00641														0.461134	-5.262653	-8.217132	0.856616	-0.513502	0.050250	-0.410526	-0.737332	-0.536479	0.312534	0.438928	-0.842416
00642														0.489523	-5.248992	-8.246047	0.856629	-0.513478	0.050272	-0.410499	-0.737354	-0.536470	0.312534	0.438919	-0.842421
00643														0.456921	-5.266242	-8.266133	0.856611	-0.513506	0.050286	-0.410512	-0.737337	-0.536484	0.312565	0.438915	-0.842411
00644														0.466808	-5.240414	-8.245122	0.856620	-0.513492	0.050274	-0.410511	-0.737348	-0.536469	0.312543	0.438912	-0.842421
00645														0.497422	-5.224447	-8.249849	0.856616	-0.513500	0.050268	-0.410521	-0.737344	-0.536467	0.312541	0.438910	-0.842423
00646														0.464587	-5.241719	-8.269935	0.856616	-0.513500	0.050263	-0.410519	-0.737336	-0.536479	0.312543	0.438923	-0.842416
00647														0.469362	-5.236623	-8.221870	0.856612	-0.513505	0.050276	-0.410527	-0.737350	-0.536454	0.312543	0.438894	-0.842430
00648														0.464919	-5.240595	-8.270629	0.856618	-0.513496	0.050276	-0.410519	-0.737354	-0.536454	0.312539	0.438897	-0.842430
00649														0.469592	-5.235543	-8.222545	0.856624	-0.513488	0.050263	-0.410519	-0.737357	-0.536449	0.312522	0.438901	-0.842434
00650														0.462085	-5.258169	-8.219949	0.856622	-0.513493	0.050240	-0.410531	-0.737344	-0.536459	0.312512	0.438917	-0.842430
00651														0.497680	-5.221436	-8.251739	0.856631	-0.513480	0.050215	-0.410538	-0.737354	-0.536439	0.312477	0.438916	-0.842444
00652														0.467252	-5.236325	-8.247694	0.856617	-0.513500	0.050248	-0.410538	-0.737349	-0.536446	0.312515	0.438901	-0.842437
00653														0.467461	-5.235865	-8.247974	0.856623	-0.513492	0.050234	-0.410538	-0.737352	-0.536442	0.312499	0.438905	-0.842441
00654														0.467568	-5.235442	-8.248236	0.856625	-0.513487	0.050246	-0.410524	-0.737350	-0.536456	0.312512	0.438915	-0.842431
00655														0.465427	-5.237242	-8.272723	0.856627	-0.513484	0.050246	-0.410526	-0.737359	-0.536442	0.312504	0.438903	-0.842440
00656														0.468069	-5.234346	-8.248904	0.856624	-0.513485	0.050290	-0.410514	-0.737378	-0.536425	0.312529	0.438869	-0.842448
00657														0.472957	-5.229232	-8.200859	0.856629	-0.513477	0.050277	-0.410514	-0.737382	-0.536420	0.312513	0.438873	-0.842452
00658														0.484146	-5.263947	-8.248215	0.856629	-0.513476	0.050291	-0.410511	-0.737391	-0.536410	0.312517	0.438860	-0.842458
00659														0.468636	-5.232517	-8.250032	0.856628	-0.513478	0.050293	-0.410527	-0.737410	-0.536371	0.312501	0.438824	-0.842483
00660														0.463754	-5.252692	-8.223356	0.856624	-0.513481	0.050318	-0.410517	-0.737413	-0.536376	0.312524	0.438816	-0.842478
00661														0.469080	-5.231349	-8.250747	0.856637	-0.513460	0.050311	-0.410508	-0.737429	-0.536359	0.312500	0.438812	-0.842489
00662														0.490021	-5.240708	-8.276780	0.856632	-0.513469	0.050318	-0.410511	-0.737426	-0.536361	0.312511	0.438808	-0.842487
00663														0.469282	-5.230323	-8.251386	0.856639	-0.513458	0.050306	-0.410509	-0.737431	-0.536357	0.312493	0.438813	-0.842491
00664														0.492481	-5.237539	-8.253150	0.856628	-0.513475	0.050308	-0.410518	-0.737416	-0.536371	0.312511	0.438818	-0.842482
00665														0.469281	-5.229451	-8.251939	0.856642	-0.513457	0.050270	-0.410522	-0.737420	-0.536362	0.312469	0.438833	-0.842490
00666														0.492543	-5.236429	-8.253851	0.856631	-0.513471	0.050310	-0.410527	-0.737438	-0.536332	0.312492	0.438785	-0.842506
00667														0.474208	-5.223694	-8.204316	0.856643	-0.513453	0.050285	-0.410521	-0.737438	-0.536337	0.312466	0.438807	-0.842504
00668														0.462286	-5.250797	-8.250155	0.856645	-0.513447	0.050315	-0.410505	-0.737452	-0.536330	0.312482	0.438790	-0.842507
00669														0.472294	-5.224889	-8.229164	0.856647	-0.513443	0.050316	-0.410507	-0.737462	-0.536315	0.312474	0.438778	-0.842516
00670														0.488185	-5.255016	-8.228175	0.856647	-0.513442	0.050330	-0.410503	-0.737471	-0.536306	0.312478	0.438764	-0.842522
00671														0.518916	-5.238920	-8.232935	0.856639	-0.513456	0.050327	-0.410526	-0.737477	-0.536279	0.312470	0.438737	-0.842539
00672														0.463007	-5.248326	-8.251687	0.856626	-0.513477	0.050330	-0.410546	-0.737473	-0.536269	0.312479	0.438719	-0.842545
00673														0.470504	-5.224700	-8.254878	0.856634	-0.513465	0.050318	-0.410543	-0.737479	-0.536264	0.312462	0.438725	-0.842549
00674														0.488646	-5.252630	-8.229671	0.856634	-0.513463	0.050332	-0.410540	-0.737488	-0.536255	0.312466	0.438711	-0.842554
00675														0.465685	-5.244409	-8.228532	0.856637	-0.513458	0.050333	-0.410540	-0.737498	-0.536240	0.312457	0.438699	-0.842564
00676														0.478191	-5.199978	-8.258746	0.856646	-0.513446	0.050303	-0.410541	-0.737493	-0.536247	0.312432	0.438723	-0.842561
00677														0.488817	-5.251100	-8.230637	0.856643	-0.513450	0.050316	-0.410538	-0.737493	-0.536248	0.312444	0.438716	-0.842560
00678														0.470997	-5.222163	-8.256455	0.856638	-0.513459	0.050323	-0.410541	-0.737490	-0.536250	0.312455	0.438712	-0.842558
00679														0.494200	-5.229367	-8.258228	0.856640	-0.513456	0.050306	-0.410544	-0.737483	-0.536257	0.312445	0.438726	-0.842554
00680														0.473431	-5.219079	-8.232785	0.856634	-0.513465	0.050314	-0.410547	-0.737480	-0.536260	0.312456	0.438722	-0.842552
00681														0.496662	-5.226223	-8.234594	0.856641	-0.513454	0.050303	-0.410545	-0.737485	-0.536255	0.312440	0.438727	-0.842556
00682														0.466157	-5.241257	-8.230513	0.856631	-0.513472	0.050305	-0.410554	-0.737469	-0.536269	0.312457	0.438732	-0.842547
00683														0.468956	-5.222137	-8.282068	0.856642	-0.513455	0.050282	-0.410556	-0.737481	-0.536251	0.312422	0.438731	-0.842560
00684														0.489421	-5.247846	-8.232676	0.856639	-0.513458	0.050307	-0.410546	-0.737484	-0.536255	0.312445	0.438724	-0.842555
00685														0.487196	-5.249590	-8.257181	0.856645	-0.513451	0.050278	-0.410556	-0.737483	-0.536248	0.312417	0.438732	-0.842561
00686														0.489476	-5.246857	-8.233303	0.856650	-0.513442	0.050278	-0.410548	-0.737488	-0.536248	0.312412	0.438736	-0.842561
00687														0.461670	-5.243177	-8.280519	0.856658	-0.513432	0.050250	-0.410554	-0.737489	-0.536242	0.312383	0.438745	-0.842567
00688														0.484780	-5.250291	-8.282357	0.856663	-0.513423	0.050250	-0.410546	-0.737493	-0.536242	0.312378	0.438748	-0.842567
00689														0.484709	-5.249771	-8.282690	0.856679	-0.513400	0.050214	-0.410546	-0.737500	-0.536233	0.312335	0.438764	-0.842575
00690														0.489288	-5.244762	-8.234649	0.856666	-0.513421	0.050218	-0.410566	-0.737496	-0.536223	0.312344	0.438746	-0.842581
00691														0.473458	-5.213297	-8.236446	0.856681	-0.513400	0.050172	-0.410587	-0.737520	-0.536175	0.312275	0.438731	-0.842615
00692														0.483939	-5.263933	-8.208722	0.856670	-0.513420	0.050166	-0.410624	-0.737534	-0.536126	0.312257	0.438684	-0.842646
00693														0.458190	-5.257083	-8.232345	0.856676	-0.513418	0.050092	-0.410711	-0.737595	-0.535976	0.312127	0.438584	-0.842746
00694														0.505955	-5.268032	-8.212570	0.856682	-0.513419	0.049972	-0.410833	-0.737658	-0.535796	0.311950	0.438477	-0.842867
00695														0.491824	-5.216193	-8.266697	0.856687	-0.513423	0.049830	-0.410982	-0.737736	-0.535574	0.311738	0.438340	-0.843017
00696														0.434850	-5.223759	-8.286647	0.856692	-0.513423	0.049758	-0.411082	-0.737815	-0.535389	0.311593	0.438209	-0.843139
00697														0.419002	-5.191429	-8.288935	0.856699	-0.513409	0.049785	-0.411076	-0.737853	-0.535341	0.311583	0.438160	-0.843168
00698														0.440217	-5.200856	-8.314892	0.856696	-0.513410	0.049818	-0.411037	-0.737825	-0.535409	0.311641	0.438205	-0.843123
00699														0.473959	-5.183801	-8.294594	0.856712	-0.513372	0.049939	-0.410894	-0.737795	-0.535560	0.311786	0.438301	-0.843019
00700														0.465076	-5.227019	-8.239623	0.856686	-0.513402	0.050062	-0.410779	-0.737690	-0.535793	0.312008	0.438442	-0.842864
00701														0.520135	-5.221006	-8.244230	0.856670	-0.513416	0.050195	-0.410641	-0.737590	-0.536036	0.312233	0.438593	-0.842702
00702														0.490749	-5.238362	-8.238635	0.856659	-0.513427	0.050280	-0.410525	-0.737483	-0.536273	0.312418	0.438762	-0.842546
00703														0.512462	-5.250010	-8.263142	0.856645	-0.513443	0.050354	-0.410419	-0.737372	-0.536506	0.312595	0.438929	-0.842393
00704														0.512989	-5.251844	-8.261944	0.856644	-0.513444	0.050366	-0.410326	-0.737250	-0.536744	0.312721	0.439132	-0.842240
00705														0.484897	-5.266773	-8.232333	0.856610	-0.513501	0.050363	-0.410302	-0.737119	-0.536943	0.312845	0.439287	-0.842114
00706														0.510242	-5.273418	-8.208847	0.856607	-0.513510	0.050321	-0.410271	-0.737023	-0.537099	0.312893	0.439437	-0.842017
00707														0.461125	-5.261061	-8.229640	0.856597	-0.513534	0.050239	-0.410302	-0.736953	-0.537172	0.312880	0.439526	-0.841975
00708														0.501814	-5.297196	-8.205638	0.856572	-0.513581	0.050196	-0.410349	-0.736902	-0.537205	0.312887	0.439557	-0.841957
00709														0.452747	-5.283707	-8.227148	0.856557	-0.513613	0.050125	-0.410422	-0.736888	-0.537169	0.312833	0.439543	-0.841984
00710														0.429073	-5.274980	-8.226374	0.856553	-0.513624	0.050067	-0.410493	-0.736917	-0.537074	0.312749	0.439480	-0.842048
00711														0.451658	-5.280863	-8.229034	0.856547	-0.513642	0.049989	-0.410603	-0.736974	-0.536912	0.312621	0.439364	-0.842156
00712														0.460721	-5.253386	-8.209082	0.856563	-0.513624	0.049909	-0.410693	-0.737060	-0.536725	0.312461	0.439241	-0.842280
00713														0.429879	-5.266259	-8.206427	0.856581	-0.513594	0.049909	-0.410760	-0.737205	-0.536474	0.312323	0.439032	-0.842440
00714														0.463233	-5.229330	-8.263725	0.856595	-0.513572	0.049896	-0.410826	-0.737324	-0.536260	0.312198	0.438859	-0.842577
00715														0.486651	-5.234158	-8.267004	0.856612	-0.513538	0.049944	-0.410871	-0.737486	-0.536004	0.312091	0.438627	-0.842737
00716														0.448258	-5.193462	-8.268200	0.856638	-0.513491	0.049977	-0.410865	-0.737586	-0.535871	0.312027	0.438513	-0.842820
00717														0.469767	-5.201546	-8.294969	0.856671	-0.513427	0.050064	-0.410813	-0.737698	-0.535755	0.312004	0.438399	-0.842888
00718														0.505852	-5.180533	-8.251561	0.856688	-0.513392	0.050141	-0.410758	-0.737748	-0.535729	0.312030	0.438357	-0.842900
00719														0.519968	-5.212689	-8.274931	0.856698	-0.513371	0.050184	-0.410729	-0.737779	-0.535708	0.312042	0.438328	-0.842911
00720														0.522676	-5.210072	-8.250984	0.856707	-0.513354	0.050200	-0.410697	-0.737778	-0.535735	0.312058	0.438351	-0.842893
00721														0.527676	-5.189226	-8.277918	0.856719	-0.513339	0.050149	-0.410674	-0.737726	-0.535823	0.312056	0.438455	-0.842839
00722														0.514707	-5.233597	-8.247974	0.856707	-0.513367	0.050078	-0.410702	-0.737655	-0.535901	0.312054	0.438543	-0.842795
00723														0.450454	-5.267251	-8.263285	0.856693	-0.513402	0.049958	-0.410742	-0.737547	-0.536018	0.312039	0.438683	-0.842727
00724														0.459404	-5.242706	-8.241441	0.856686	-0.513419	0.049900	-0.410735	-0.737458	-0.536147	0.312067	0.438814	-0.842649
00725														0.463903	-5.222660	-8.267905	0.856670	-0.513454	0.049821	-0.410745	-0.737344	-0.536295	0.312098	0.438964	-0.842559
00726														0.474109	-5.275245	-8.239082	0.856649	-0.513492	0.049783	-0.410742	-0.737240	-0.536441	0.312160	0.439093	-0.842469
00727														0.478729	-5.255228	-8.265527	0.856639	-0.513515	0.049709	-0.410744	-0.737139	-0.536577	0.312183	0.439235	-0.842386
00728														0.447385	-5.287946	-8.185381	0.856627	-0.513538	0.049684	-0.410739	-0.737072	-0.536674	0.312223	0.439323	-0.842326
00729														0.475539	-5.274867	-8.213774	0.856607	-0.513573	0.049677	-0.410754	-0.737028	-0.536723	0.312260	0.439356	-0.842295
00730														0.447505	-5.271533	-8.260714	0.856603	-0.513585	0.049618	-0.410780	-0.736992	-0.536752	0.312236	0.439401	-0.842280
00731														0.426691	-5.261255	-8.235282	0.856606	-0.513576	0.049658	-0.410766	-0.737023	-0.536719	0.312245	0.439359	-0.842298
00732														0.455490	-5.247049	-8.264357	0.856595	-0.513588	0.049717	-0.410769	-0.737059	-0.536668	0.312271	0.439285	-0.842328
00733														0.453424	-5.264800	-8.213755	0.856598	-0.513578	0.049776	-0.410755	-0.737107	-0.536613	0.312283	0.439216	-0.842359
00734														0.480072	-5.252474	-8.267199	0.856603	-0.513562	0.049852	-0.410739	-0.737180	-0.536525	0.312289	0.439113	-0.842410
00735														0.452582	-5.264506	-8.239457	0.856614	-0.513538	0.049905	-0.410725	-0.737247	-0.536443	0.312276	0.439028	-0.842459
00736														0.493568	-5.222241	-8.223257	0.856634	-0.513498	0.049981	-0.410703	-0.737351	-0.536317	0.312251	0.438900	-0.842535
00737														0.486517	-5.243617	-8.221562	0.856642	-0.513488	0.049955	-0.410754	-0.737417	-0.536187	0.312163	0.438801	-0.842620
00738														0.491928	-5.220822	-8.249691	0.856659	-0.513451	0.050032	-0.410744	-0.737533	-0.536037	0.312129	0.438650	-0.842711
00739														0.494375	-5.216727	-8.226707	0.856662	-0.513453	0.049961	-0.410833	-0.737592	-0.535887	0.312003	0.438549	-0.842810
00740														0.514650	-5.224418	-8.253794	0.856664	-0.513456	0.049900	-0.410926	-0.737664	-0.535716	0.311876	0.438424	-0.842922
00741														0.523699	-5.196988	-8.233760	0.856671	-0.513453	0.049805	-0.411032	-0.737735	-0.535538	0.311716	0.438308	-0.843042
00742														0.492078	-5.210566	-8.230748	0.856674	-0.513462	0.049659	-0.411151	-0.737757	-0.535416	0.311552	0.438260	-0.843127
00743														0.465337	-5.203444	-8.254517	0.856668	-0.513485	0.049528	-0.411273	-0.737776	-0.535295	0.311406	0.438201	-0.843212
00744														0.485007	-5.211630	-8.281321	0.856664	-0.513503	0.049405	-0.411378	-0.737785	-0.535202	0.311278	0.438165	-0.843278
00745														0.463238	-5.200780	-8.256314	0.856682	-0.513482	0.049314	-0.411417	-0.737795	-0.535159	0.311178	0.438173	-0.843311
00746														0.452932	-5.225223	-8.278314	0.856687	-0.513478	0.049268	-0.411441	-0.737795	-0.535140	0.311133	0.438176	-0.843326
00747														0.434580	-5.196216	-8.303960	0.856704	-0.513451	0.049245	-0.411417	-0.737786	-0.535171	0.311116	0.438223	-0.843307
00748														0.488543	-5.188492	-8.309700	0.856702	-0.513449	0.049305	-0.411348	-0.737745	-0.535280	0.311214	0.438294	-0.843234
00749														0.448504	-5.246995	-8.250842	0.856703	-0.513443	0.049347	-0.411254	-0.737659	-0.535471	0.311335	0.438446	-0.843111
00750														0.461802	-5.204478	-8.279479	0.856712	-0.513418	0.049464	-0.411095	-0.737582	-0.535699	0.311521	0.438606	-0.842959
00751														0.478215	-5.253859	-8.201640	0.856719	-0.513400	0.049534	-0.410949	-0.737468	-0.535968	0.311696	0.438818	-0.842784
00752														0.474446	-5.260420	-8.248536	0.856731	-0.513370	0.049630	-0.410769	-0.737351	-0.536267	0.311898	0.439051	-0.842588
00753														0.508132	-5.244741	-8.227329	0.856725	-0.513374	0.049682	-0.410674	-0.737255	-0.536472	0.312039	0.439206	-0.842454
00754														0.493812	-5.292288	-8.220934	0.856718	-0.513385	0.049699	-0.410614	-0.737168	-0.536637	0.312138	0.439340	-0.842348
00755														0.493595	-5.292977	-8.220504	0.856706	-0.513413	0.049618	-0.410647	-0.737096	-0.536711	0.312128	0.439428	-0.842306
00756														0.497333	-5.288590	-8.172205	0.856710	-0.513418	0.049489	-0.410708	-0.737058	-0.536716	0.312036	0.439485	-0.842310
00757														0.481462	-5.317170	-8.242777	0.856711	-0.513436	0.049297	-0.410848	-0.737057	-0.536610	0.311850	0.439466	-0.842389
00758														0.452860	-5.249716	-8.197991	0.856700	-0.513471	0.049114	-0.411021	-0.737079	-0.536447	0.311651	0.439387	-0.842504
00759														0.415957	-5.267184	-8.243654	0.856698	-0.513491	0.048935	-0.411198	-0.737137	-0.536232	0.311422	0.439267	-0.842651
00760														0.414538	-5.264578	-8.245389	0.856706	-0.513491	0.048805	-0.411337	-0.737219	-0.536013	0.311218	0.439130	-0.842798
00761														0.428375	-5.215768	-8.252567	0.856709	-0.513494	0.048726	-0.411454	-0.737308	-0.535800	0.311056	0.438976	-0.842938
00762														0.415914	-5.240648	-8.299818	0.856725	-0.513469	0.048711	-0.411509	-0.737416	-0.535610	0.310940	0.438826	-0.843059
00763														0.456373	-5.197712	-8.284030	0.856741	-0.513438	0.048746	-0.411526	-0.737521	-0.535452	0.310873	0.438683	-0.843158
00764														0.485059	-5.182565	-8.313602	0.856755	-0.513410	0.048797	-0.411512	-0.737596	-0.535360	0.310851	0.438591	-0.843213
00765														0.426955	-5.210201	-8.281566	0.856766	-0.513387	0.048851	-0.411498	-0.737663	-0.535279	0.310841	0.438506	-0.843262
00766														0.483695	-5.199201	-8.263820	0.856777	-0.513361	0.048922	-0.411449	-0.737700	-0.535264	0.310874	0.438473	-0.843267
00767														0.510076	-5.204248	-8.241428	0.856792	-0.513328	0.049013	-0.411372	-0.737727	-0.535287	0.310936	0.438467	-0.843247
00768														0.492670	-5.175439	-8.266845	0.856792	-0.513323	0.049053	-0.411338	-0.737723	-0.535319	0.310979	0.438479	-0.843224
00769														0.506327	-5.208233	-8.289914	0.856802	-0.513308	0.049040	-0.411305	-0.737691	-0.535389	0.310995	0.438552	-0.843181
00770														0.485366	-5.198837	-8.263952	0.856794	-0.513326	0.049003	-0.411306	-0.737630	-0.535471	0.311017	0.438633	-0.843131
00771														0.498288	-5.248788	-8.211498	0.856777	-0.513355	0.048982	-0.411310	-0.737567	-0.535555	0.311057	0.438704	-0.843079
00772														0.477233	-5.222562	-8.260897	0.856771	-0.513376	0.048868	-0.411353	-0.737492	-0.535625	0.311017	0.438806	-0.843041
00773														0.455563	-5.212942	-8.235110	0.856747	-0.513424	0.048785	-0.411418	-0.737429	-0.535663	0.310998	0.438856	-0.843022
00774														0.447507	-5.235890	-8.232538	0.856741	-0.513441	0.048709	-0.411457	-0.737387	-0.535689	0.310963	0.438905	-0.843009
00775														0.446907	-5.235546	-8.232789	0.856732	-0.513464	0.048643	-0.411505	-0.737359	-0.535691	0.310925	0.438926	-0.843012
00776														0.434439	-5.262406	-8.278792	0.856740	-0.513452	0.048613	-0.411506	-0.737354	-0.535698	0.310900	0.438949	-0.843009
00777														0.444092	-5.236502	-8.257744	0.856741	-0.513452	0.048609	-0.411527	-0.737380	-0.535645	0.310871	0.438905	-0.843043
00778														0.434373	-5.260899	-8.279753	0.856750	-0.513438	0.048597	-0.411526	-0.737392	-0.535631	0.310849	0.438902	-0.843053
00779														0.451901	-5.211656	-8.261525	0.856754	-0.513423	0.048677	-0.411506	-0.737458	-0.535554	0.310864	0.438807	-0.843097
00780														0.468492	-5.241359	-8.261001	0.856758	-0.513410	0.048745	-0.411474	-0.737496	-0.535527	0.310894	0.438760	-0.843110
00781														0.445921	-5.233010	-8.259859	0.856771	-0.513385	0.048778	-0.411450	-0.737534	-0.535492	0.310889	0.438724	-0.843130
00782														0.500009	-5.224338	-8.266182	0.856773	-0.513378	0.048809	-0.411433	-0.737549	-0.535485	0.310906	0.438707	-0.843133
00783														0.479560	-5.214126	-8.240705	0.856777	-0.513369	0.048833	-0.411420	-0.737565	-0.535473	0.310913	0.438691	-0.843139
00784														0.484900	-5.192453	-8.267992	0.856772	-0.513376	0.048860	-0.411420	-0.737579	-0.535454	0.310927	0.438660	-0.843150
00785														0.479961	-5.212764	-8.241543	0.856787	-0.513353	0.048829	-0.411426	-0.737599	-0.535421	0.310876	0.438653	-0.843173
00786														0.479845	-5.212055	-8.241998	0.856796	-0.513339	0.048818	-0.411425	-0.737611	-0.535407	0.310854	0.438649	-0.843182
00787														0.472375	-5.234537	-8.239716	0.856792	-0.513349	0.048789	-0.411452	-0.737608	-0.535389	0.310828	0.438642	-0.843196
00788														0.467562	-5.238102	-8.288507	0.856785	-0.513362	0.048780	-0.411468	-0.737600	-0.535388	0.310828	0.438641	-0.843196
00789														0.453961	-5.204830	-8.265714	0.856789	-0.513359	0.048738	-0.411487	-0.737595	-0.535380	0.310791	0.438652	-0.843204
00790														0.471869	-5.232913	-8.240777	0.856780	-0.513377	0.048712	-0.411516	-0.737582	-0.535377	0.310779	0.438654	-0.843207
00791														0.476709	-5.211332	-8.268016	0.856785	-0.513370	0.048688	-0.411522	-0.737582	-0.535371	0.310754	0.438662	-0.843213
00792														0.443581	-5.228420	-8.288280	0.856774	-0.513393	0.048644	-0.411564	-0.737563	-0.535365	0.310731	0.438667	-0.843219
00793														0.475853	-5.227195	-8.193411	0.856778	-0.513390	0.048602	-0.411583	-0.737558	-0.535357	0.310694	0.438678	-0.843226
00794														0.470958	-5.230722	-8.242220	0.856787	-0.513376	0.048591	-0.411582	-0.737570	-0.535342	0.310671	0.438675	-0.843236
00795														0.501241	-5.214616	-8.246878	0.856795	-0.513368	0.048536	-0.411599	-0.737559	-0.535344	0.310626	0.438702	-0.843239
00796														0.440054	-5.245403	-8.238502	0.856792	-0.513373	0.048542	-0.411591	-0.737545	-0.535370	0.310647	0.438721	-0.843222
00797														0.437680	-5.247199	-8.262879	0.856799	-0.513364	0.048517	-0.411587	-0.737533	-0.535389	0.310632	0.438751	-0.843211
00798														0.470588	-5.229143	-8.243243	0.856799	-0.513362	0.048530	-0.411584	-0.737542	-0.535378	0.310636	0.438737	-0.843217
00799														0.437629	-5.246253	-8.263483	0.856795	-0.513373	0.048483	-0.411613	-0.737523	-0.535382	0.310608	0.438756	-0.843217
00800														0.463151	-5.251191	-8.241253	0.856813	-0.513340	0.048512	-0.411579	-0.737558	-0.535360	0.310603	0.438737	-0.843229
00801														0.463597	-5.250517	-8.241658	0.856802	-0.513354	0.048556	-0.411578	-0.737571	-0.535343	0.310634	0.438698	-0.843238
00802														0.445976	-5.221172	-8.267344	0.856804	-0.513346	0.048606	-0.411559	-0.737603	-0.535313	0.310653	0.438654	-0.843254
00803														0.459648	-5.253304	-8.290870	0.856813	-0.513332	0.048586	-0.411554	-0.737601	-0.535320	0.310634	0.438674	-0.843251
00804														0.469738	-5.227624	-8.269629	0.856814	-0.513324	0.048665	-0.411516	-0.737631	-0.535308	0.310683	0.438633	-0.843254
00805														0.447314	-5.219445	-8.268362	0.856812	-0.513323	0.048719	-0.411498	-0.737654	-0.535290	0.310714	0.438595	-0.843262
00806														0.466165	-5.247381	-8.243510	0.856816	-0.513310	0.048786	-0.411466	-0.737691	-0.535263	0.310745	0.438548	-0.843275
00807														0.456020	-5.194916	-8.271835	0.856813	-0.513310	0.048840	-0.411449	-0.737714	-0.535245	0.310776	0.438510	-0.843284
00808														0.474732	-5.222959	-8.246925	0.856804	-0.513320	0.048878	-0.411443	-0.737721	-0.535240	0.310808	0.438485	-0.843285
00809														0.480081	-5.201365	-8.274095	0.856801	-0.513323	0.048896	-0.411436	-0.737724	-0.535242	0.310824	0.438478	-0.843283
00810														0.477562	-5.220000	-8.223269	0.856812	-0.513306	0.048884	-0.411424	-0.737724	-0.535251	0.310810	0.438498	-0.843277
00811														0.500949	-5.227071	-8.225178	0.856814	-0.513299	0.048925	-0.411403	-0.737742	-0.535243	0.310834	0.438475	-0.843280
00812														0.482926	-5.197898	-8.250754	0.856805	-0.513317	0.048899	-0.411431	-0.737728	-0.535240	0.310822	0.438477	-0.843284
00813														0.465717	-5.245669	-8.269998	0.856810	-0.513310	0.048875	-0.411438	-0.737729	-0.535234	0.310797	0.438485	-0.843289
00814														0.467943	-5.243058	-8.246160	0.856806	-0.513319	0.048854	-0.411460	-0.737727	-0.535219	0.310779	0.438477	-0.843300
00815														0.472800	-5.221252	-8.273479	0.856804	-0.513325	0.048832	-0.411487	-0.737734	-0.535189	0.310751	0.438458	-0.843320
00816														0.467608	-5.241645	-8.247077	0.856798	-0.513339	0.048794	-0.411522	-0.737727	-0.535171	0.310720	0.438454	-0.843333
00817														0.477073	-5.215648	-8.226058	0.856811	-0.513320	0.048766	-0.411539	-0.737759	-0.535115	0.310662	0.438423	-0.843371
00818														0.441819	-5.234357	-8.270800	0.856796	-0.513344	0.048772	-0.411570	-0.737767	-0.535080	0.310662	0.438381	-0.843393
00819														0.467192	-5.239234	-8.248632	0.856806	-0.513333	0.048717	-0.411584	-0.737758	-0.535082	0.310617	0.438410	-0.843394
00820														0.467190	-5.238667	-8.248992	0.856813	-0.513317	0.048754	-0.411561	-0.737785	-0.535062	0.310626	0.438383	-0.843405
00821														0.449364	-5.209323	-8.274632	0.856809	-0.513321	0.048775	-0.411564	-0.737800	-0.535039	0.310633	0.438353	-0.843418
00822														0.475179	-5.214324	-8.252362	0.856824	-0.513294	0.048797	-0.411526	-0.737810	-0.535054	0.310643	0.438366	-0.843407
00823														0.468149	-5.236999	-8.249997	0.856830	-0.513282	0.048821	-0.411507	-0.737827	-0.535044	0.310650	0.438352	-0.843412
00824														0.468382	-5.236597	-8.250239	0.856827	-0.513287	0.048827	-0.411499	-0.737813	-0.535071	0.310670	0.438371	-0.843395
00825														0.498959	-5.220745	-8.254663	0.856834	-0.513275	0.048819	-0.411485	-0.737805	-0.535093	0.310669	0.438398	-0.843382
00826														0.468690	-5.235948	-8.250634	0.856826	-0.513286	0.048857	-0.411479	-0.737812	-0.535087	0.310700	0.438373	-0.843383
00827														0.473902	-5.214106	-8.277921	0.856844	-0.513256	0.048851	-0.411472	-0.737846	-0.535046	0.310660	0.438350	-0.843410
00828														0.492366	-5.241994	-8.253181	0.856840	-0.513258	0.048895	-0.411459	-0.737866	-0.535028	0.310686	0.438315	-0.843418
00829														0.476744	-5.210676	-8.254576	0.856848	-0.513247	0.048877	-0.411465	-0.737876	-0.535011	0.310658	0.438311	-0.843430
00830														0.469326	-5.233234	-8.252319	0.856851	-0.513243	0.048861	-0.411470	-0.737875	-0.535008	0.310642	0.438318	-0.843433
00831														0.446110	-5.225139	-8.251044	0.856851	-0.513245	0.048851	-0.411482	-0.737880	-0.534992	0.310628	0.438307	-0.843444
00832														0.446238	-5.224476	-8.251457	0.856856	-0.513234	0.048871	-0.411472	-0.737901	-0.534970	0.310626	0.438283	-0.843457
00833														0.467311	-5.233416	-8.277667	0.856851	-0.513241	0.048889	-0.411468	-0.737902	-0.534972	0.310644	0.438275	-0.843454
00834														0.467423	-5.232989	-8.277931	0.856862	-0.513224	0.048876	-0.411456	-0.737902	-0.534981	0.310631	0.438295	-0.843449
00835														0.497981	-5.216752	-8.282580	0.856868	-0.513213	0.048886	-0.411456	-0.737929	-0.534944	0.310615	0.438262	-0.843472
00836														0.467820	-5.231550	-8.278818	0.856881	-0.513188	0.048929	-0.411427	-0.737968	-0.534912	0.310618	0.438225	-0.843490
00837														0.470452	-5.228787	-8.255073	0.856884	-0.513182	0.048924	-0.411434	-0.737984	-0.534884	0.310599	0.438205	-0.843508
00838														0.470543	-5.228111	-8.255496	0.856895	-0.513164	0.048931	-0.411420	-0.738001	-0.534872	0.310588	0.438198	-0.843515
00839														0.491441	-5.236939	-8.281782	0.856893	-0.513167	0.048926	-0.411435	-0.738013	-0.534845	0.310572	0.438175	-0.843533
00840														0.480345	-5.201571	-8.234777	0.856884	-0.513183	0.048918	-0.411461	-0.738016	-0.534820	0.310563	0.438150	-0.843549
00841														0.477931	-5.202795	-8.259476	0.856910	-0.513142	0.048899	-0.411446	-0.738047	-0.534788	0.310512	0.438145	-0.843570
00842														0.472981	-5.223271	-8.233084	0.856897	-0.513163	0.048903	-0.411466	-0.738044	-0.534777	0.310521	0.438127	-0.843577
00843														0.480309	-5.199629	-8.236005	0.856907	-0.513148	0.048884	-0.411460	-0.738043	-0.534784	0.310502	0.438146	-0.843573
00844														0.472792	-5.222242	-8.233748	0.856901	-0.513162	0.048846	-0.411495	-0.738036	-0.534767	0.310472	0.438142	-0.843587
00845														0.488660	-5.252283	-8.233186	0.856901	-0.513159	0.048871	-0.411485	-0.738049	-0.534756	0.310484	0.438124	-0.843592
00846														0.475294	-5.219107	-8.210257	0.856905	-0.513155	0.048854	-0.411490	-0.738048	-0.534754	0.310468	0.438130	-0.843595
00847														0.437723	-5.240044	-8.279052	0.856901	-0.513160	0.048858	-0.411502	-0.738060	-0.534728	0.310461	0.438104	-0.843611
00848														0.470639	-5.221709	-8.259542	0.856892	-0.513176	0.048851	-0.411528	-0.738063	-0.534703	0.310452	0.438079	-0.843627
00849														0.485167	-5.174774	-8.265146	0.856906	-0.513155	0.048820	-0.411527	-0.738069	-0.534696	0.310414	0.438093	-0.843633
00850														0.477727	-5.197329	-8.262929	0.856915	-0.513141	0.048810	-0.411525	-0.738081	-0.534681	0.310392	0.438090	-0.843643
00851														0.477911	-5.196734	-8.263292	0.856901	-0.513161	0.048842	-0.411531	-0.738084	-0.534672	0.310422	0.438061	-0.843647
00852														0.463579	-5.242578	-8.258376	0.856903	-0.513157	0.048854	-0.411517	-0.738082	-0.534686	0.310436	0.438070	-0.843637
00853														0.448047	-5.211413	-8.259615	0.856904	-0.513151	0.048893	-0.411502	-0.738105	-0.534666	0.310453	0.438038	-0.843648
00854														0.499479	-5.221931	-8.214829	0.856912	-0.513137	0.048911	-0.411481	-0.738115	-0.534668	0.310460	0.438038	-0.843646
00855														0.497309	-5.223478	-8.239299	0.856914	-0.513132	0.048917	-0.411470	-0.738112	-0.534680	0.310468	0.438047	-0.843638
00856														0.474200	-5.215548	-8.237909	0.856907	-0.513146	0.048908	-0.411486	-0.738104	-0.534680	0.310467	0.438046	-0.843638
00857														0.471793	-5.217006	-8.262447	0.856899	-0.513161	0.048893	-0.411507	-0.738095	-0.534676	0.310462	0.438044	-0.843641
00858														0.492495	-5.226013	-8.288618	0.856897	-0.513166	0.048870	-0.411518	-0.738082	-0.534686	0.310453	0.438059	-0.843637
00859														0.461963	-5.241279	-8.284619	0.856887	-0.513183	0.048867	-0.411530	-0.738067	-0.534696	0.310464	0.438064	-0.843630
00860														0.478949	-5.192643	-8.265803	0.856898	-0.513166	0.048855	-0.411518	-0.738067	-0.534706	0.310451	0.438083	-0.843625
00861														0.461897	-5.240567	-8.285072	0.856892	-0.513177	0.048838	-0.411526	-0.738047	-0.534727	0.310454	0.438106	-0.843612
00862														0.469038	-5.234342	-8.212643	0.856887	-0.513185	0.048846	-0.411529	-0.738044	-0.534729	0.310465	0.438101	-0.843611
00863														0.469333	-5.216558	-8.288187	0.856897	-0.513169	0.048841	-0.411518	-0.738052	-0.534726	0.310452	0.438106	-0.843613
00864														0.474098	-5.212219	-8.240021	0.856897	-0.513169	0.048836	-0.411516	-0.738044	-0.534738	0.310454	0.438118	-0.843606
00865														0.474238	-5.211924	-8.240200	0.856899	-0.513164	0.048855	-0.411494	-0.738038	-0.534764	0.310478	0.438136	-0.843588
00866														0.474519	-5.211523	-8.240437	0.856912	-0.513140	0.048878	-0.411467	-0.738060	-0.534754	0.310479	0.438126	-0.843593
00867														0.467222	-5.234178	-8.238177	0.856891	-0.513180	0.048840	-0.411515	-0.738029	-0.534760	0.310473	0.438132	-0.843591
00868														0.472025	-5.212578	-8.265228	0.856891	-0.513180	0.048835	-0.411514	-0.738021	-0.534772	0.310476	0.438145	-0.843584
00869														0.472024	-5.212199	-8.265467	0.856891	-0.513180	0.048824	-0.411515	-0.738014	-0.534781	0.310472	0.438158	-0.843579
00870														0.472079	-5.211890	-8.265659	0.856888	-0.513185	0.048831	-0.411507	-0.737999	-0.534808	0.310492	0.438176	-0.843562
00871														0.485581	-5.244292	-8.289094	0.856878	-0.513204	0.048809	-0.411521	-0.737968	-0.534840	0.310501	0.438207	-0.843542
00872														0.481779	-5.186355	-8.244284	0.856880	-0.513199	0.048821	-0.411506	-0.737966	-0.534855	0.310515	0.438216	-0.843533
00873														0.471864	-5.211216	-8.266096	0.856880	-0.513206	0.048744	-0.411533	-0.737925	-0.534890	0.310478	0.438277	-0.843514
00874														0.464093	-5.234229	-8.263641	0.856868	-0.513230	0.048710	-0.411557	-0.737887	-0.534924	0.310481	0.438312	-0.843495
00875														0.473849	-5.208657	-8.242287	0.856858	-0.513242	0.048745	-0.411564	-0.737907	-0.534891	0.310498	0.438264	-0.843514
00876														0.471485	-5.210098	-8.266823	0.856867	-0.513232	0.048696	-0.411566	-0.737885	-0.534920	0.310470	0.438314	-0.843498
00877														0.494417	-5.217355	-8.268656	0.856863	-0.513240	0.048680	-0.411573	-0.737866	-0.534941	0.310473	0.438336	-0.843486
00878														0.471016	-5.209577	-8.267178	0.856854	-0.513260	0.048635	-0.411603	-0.737835	-0.534960	0.310458	0.438364	-0.843476
00879														0.478007	-5.186124	-8.269950	0.856847	-0.513275	0.048601	-0.411624	-0.737810	-0.534979	0.310450	0.438389	-0.843467
00880														0.503138	-5.191542	-8.247515	0.856856	-0.513267	0.048534	-0.411629	-0.737770	-0.535030	0.310420	0.438465	-0.843438
00881														0.476858	-5.185927	-8.270140	0.856829	-0.513321	0.048436	-0.411705	-0.737702	-0.535065	0.310392	0.438518	-0.843421
00882														0.438620	-5.224859	-8.263280	0.856811	-0.513351	0.048424	-0.411705	-0.737639	-0.535153	0.310441	0.438588	-0.843366
00883														0.447931	-5.200199	-8.241376	0.856802	-0.513375	0.048345	-0.411724	-0.737556	-0.535251	0.310442	0.438699	-0.843308
00884														0.458716	-5.235044	-8.288740	0.856771	-0.513426	0.048342	-0.411746	-0.737497	-0.535316	0.310497	0.438739	-0.843267
00885														0.463383	-5.231465	-8.240116	0.856765	-0.513439	0.048311	-0.411735	-0.737434	-0.535411	0.310527	0.438830	-0.843209
00886														0.486233	-5.239394	-8.241538	0.856762	-0.513449	0.048261	-0.411733	-0.737369	-0.535503	0.310540	0.438928	-0.843153
00887														0.460290	-5.234317	-8.263798	0.856758	-0.513460	0.048217	-0.411724	-0.737298	-0.535607	0.310563	0.439033	-0.843090
00888														0.459938	-5.234808	-8.263507	0.856743	-0.513488	0.048174	-0.411733	-0.737225	-0.535701	0.310591	0.439124	-0.843032
00889														0.461783	-5.233381	-8.238989	0.856756	-0.513474	0.048092	-0.411717	-0.737154	-0.535811	0.310576	0.439259	-0.842967
00890														0.491930	-5.218088	-8.243037	0.856750	-0.513485	0.048091	-0.411704	-0.737116	-0.535874	0.310612	0.439310	-0.842927
00891														0.435539	-5.228379	-8.261217	0.856725	-0.513535	0.048004	-0.411758	-0.737031	-0.535948	0.310609	0.439394	-0.842885
00892														0.490940	-5.218494	-8.242839	0.856707	-0.513571	0.047946	-0.411791	-0.736964	-0.536015	0.310616	0.439464	-0.842846
00893														0.436794	-5.226752	-8.236856	0.856697	-0.513593	0.047888	-0.411816	-0.736912	-0.536068	0.310610	0.439527	-0.842815
00894														0.459592	-5.234382	-8.238476	0.856670	-0.513641	0.047854	-0.411846	-0.736842	-0.536140	0.310644	0.439587	-0.842771
00895														0.454383	-5.238334	-8.286900	0.856668	-0.513649	0.047785	-0.411870	-0.736801	-0.536179	0.310616	0.439646	-0.842751
00896														0.446804	-5.261498	-8.284325	0.856662	-0.513661	0.047784	-0.411857	-0.736762	-0.536242	0.310652	0.439698	-0.842711
00897														0.449250	-5.259623	-8.260058	0.856637	-0.513702	0.047782	-0.411875	-0.736716	-0.536292	0.310696	0.439727	-0.842679
00898														0.479674	-5.243904	-8.264371	0.856637	-0.513705	0.047758	-0.411876	-0.736691	-0.536325	0.310696	0.439766	-0.842659
00899														0.446739	-5.261357	-8.284418	0.856634	-0.513710	0.047754	-0.411868	-0.736669	-0.536362	0.310713	0.439797	-0.842636
00900														0.472309	-5.266604	-8.262080	0.856627	-0.513723	0.047745	-0.411884	-0.736660	-0.536361	0.310713	0.439796	-0.842637
00901														0.479549	-5.243011	-8.264945	0.856612	-0.513750	0.047724	-0.411913	-0.736637	-0.536370	0.310716	0.439803	-0.842632
00902														0.448852	-5.258255	-8.260950	0.856608	-0.513760	0.047685	-0.411937	-0.736619	-0.536377	0.310695	0.439822	-0.842630
00903														0.483926	-5.238259	-8.217082	0.856599	-0.513776	0.047671	-0.411958	-0.736610	-0.536374	0.310691	0.439819	-0.842633
00904														0.478942	-5.241496	-8.265941	0.856586	-0.513802	0.047629	-0.412011	-0.736602	-0.536344	0.310658	0.439801	-0.842655
00905														0.462580	-5.210270	-8.267217	0.856587	-0.513806	0.047554	-0.412043	-0.736575	-0.536355	0.310610	0.439841	-0.842651
00906														0.452181	-5.252297	-8.213918	0.856581	-0.513821	0.047497	-0.412080	-0.736551	-0.536360	0.310577	0.439863	-0.842652
00907														0.461751	-5.209339	-8.267850	0.856553	-0.513869	0.047486	-0.412132	-0.736532	-0.536347	0.310587	0.439839	-0.842661
00908														0.446840	-5.255105	-8.263063	0.856558	-0.513867	0.047422	-0.412158	-0.736516	-0.536349	0.310539	0.439869	-0.842663
00909														0.448694	-5.252710	-8.239168	0.856550	-0.513886	0.047360	-0.412201	-0.736491	-0.536350	0.310503	0.439889	-0.842666
00910														0.457904	-5.227057	-8.217909	0.856542	-0.513905	0.047305	-0.412249	-0.736479	-0.536330	0.310461	0.439888	-0.842682
00911														0.447810	-5.251522	-8.239974	0.856540	-0.513912	0.047266	-0.412276	-0.736470	-0.536322	0.310432	0.439895	-0.842689
00912														0.452458	-5.229812	-8.267082	0.856549	-0.513900	0.047236	-0.412276	-0.736464	-0.536329	0.310407	0.439918	-0.842686
00913														0.470419	-5.257935	-8.242400	0.856538	-0.513923	0.047190	-0.412328	-0.736459	-0.536296	0.310368	0.439900	-0.842709
00914														0.472614	-5.255299	-8.218648	0.856546	-0.513909	0.047179	-0.412327	-0.736470	-0.536282	0.310346	0.439897	-0.842720
00915														0.475143	-5.235252	-8.270117	0.856526	-0.513944	0.047180	-0.412371	-0.736474	-0.536243	0.310346	0.439850	-0.842744
00916														0.477318	-5.232557	-8.246401	0.856528	-0.513945	0.047117	-0.412408	-0.736469	-0.536221	0.310288	0.439857	-0.842762
00917														0.479132	-5.229987	-8.222630	0.856527	-0.513953	0.047045	-0.412453	-0.736453	-0.536208	0.310232	0.439873	-0.842774
00918														0.453003	-5.223759	-8.245581	0.856519	-0.513972	0.046990	-0.412501	-0.736441	-0.536188	0.310191	0.439872	-0.842790
00919														0.508589	-5.213067	-8.227762	0.856514	-0.513986	0.046934	-0.412541	-0.736426	-0.536178	0.310151	0.439882	-0.842799
00920														0.451814	-5.222761	-8.246278	0.856511	-0.514000	0.046828	-0.412589	-0.736375	-0.536212	0.310095	0.439951	-0.842784
00921														0.464580	-5.254972	-8.269921	0.856503	-0.514017	0.046780	-0.412628	-0.736359	-0.536203	0.310065	0.439957	-0.842792
00922														0.422615	-5.235764	-8.218319	0.856499	-0.514029	0.046722	-0.412654	-0.736323	-0.536232	0.310041	0.440002	-0.842777
00923														0.448044	-5.223647	-8.271219	0.856489	-0.514046	0.046720	-0.412665	-0.736308	-0.536244	0.310054	0.440007	-0.842769
00924														0.463585	-5.253937	-8.270635	0.856499	-0.514036	0.046642	-0.412687	-0.736287	-0.536256	0.309997	0.440054	-0.842766
00925														0.442363	-5.244006	-8.245053	0.856499	-0.514040	0.046609	-0.412712	-0.736288	-0.536236	0.309964	0.440049	-0.842780
00926														0.444676	-5.241461	-8.221247	0.856497	-0.514043	0.046606	-0.412721	-0.736292	-0.536223	0.309958	0.440038	-0.842789
00927														0.439806	-5.244578	-8.270126	0.856496	-0.514046	0.046587	-0.412743	-0.736301	-0.536193	0.309930	0.440019	-0.842809
00928														0.428598	-5.209347	-8.223009	0.856496	-0.514050	0.046555	-0.412772	-0.736307	-0.536163	0.309894	0.440005	-0.842829
00929														0.464939	-5.248740	-8.248569	0.856494	-0.514057	0.046517	-0.412798	-0.736298	-0.536156	0.309865	0.440012	-0.842837
00930														0.444158	-5.238534	-8.223140	0.856490	-0.514062	0.046534	-0.412816	-0.736331	-0.536096	0.309852	0.439951	-0.842873
00931														0.472243	-5.224036	-8.252094	0.856486	-0.514071	0.046508	-0.412833	-0.736317	-0.536103	0.309839	0.439965	-0.842870
00932														0.479353	-5.200345	-8.254982	0.856493	-0.514062	0.046480	-0.412845	-0.736323	-0.536086	0.309806	0.439965	-0.842883
00933														0.451052	-5.213576	-8.226847	0.856475	-0.514095	0.046444	-0.412887	-0.736295	-0.536092	0.309798	0.439973	-0.842881
00934														0.450753	-5.213160	-8.227127	0.856471	-0.514105	0.046405	-0.412911	-0.736277	-0.536098	0.309778	0.439992	-0.842879
00935														0.440548	-5.237884	-8.249041	0.856459	-0.514131	0.046333	-0.412956	-0.736232	-0.536124	0.309750	0.440035	-0.842867
00936														0.463201	-5.245241	-8.250892	0.856452	-0.514148	0.046286	-0.412976	-0.736190	-0.536168	0.309744	0.440087	-0.842842
00937														0.470098	-5.222015	-8.253496	0.856438	-0.514176	0.046233	-0.413008	-0.736142	-0.536208	0.309740	0.440134	-0.842818
00938														0.439333	-5.237433	-8.249392	0.856436	-0.514181	0.046211	-0.413019	-0.736129	-0.536218	0.309731	0.440150	-0.842814
00939														0.471880	-5.219703	-8.229581	0.856437	-0.514184	0.046148	-0.413032	-0.736085	-0.536268	0.309709	0.440220	-0.842785
00940														0.459422	-5.264143	-8.200298	0.856437	-0.514184	0.046148	-0.413032	-0.736085	-0.536268	0.309709	0.440220	-0.842785
00941														0.425098	-5.204808	-8.226064	0.856419	-0.514219	0.046102	-0.413057	-0.736022	-0.536335	0.309726	0.440285	-0.842745
00942														0.487089	-5.250625	-8.228653	0.856400	-0.514252	0.046092	-0.413068	-0.735970	-0.536398	0.309766	0.440332	-0.842706
00943														0.440696	-5.235738	-8.225107	0.856380	-0.514285	0.046077	-0.413081	-0.735920	-0.536458	0.309802	0.440378	-0.842668
00944														0.461243	-5.245272	-8.250982	0.856388	-0.514277	0.046039	-0.413065	-0.735878	-0.536526	0.309801	0.440457	-0.842627
00945														0.468423	-5.222213	-8.253465	0.856365	-0.514314	0.046037	-0.413080	-0.735833	-0.536576	0.309844	0.440489	-0.842595
00946														0.479167	-5.274164	-8.225906	0.856363	-0.514323	0.045977	-0.413095	-0.735786	-0.536630	0.309830	0.440557	-0.842564
00947														0.444491	-5.214641	-8.251813	0.856363	-0.514330	0.045915	-0.413119	-0.735754	-0.536656	0.309800	0.440604	-0.842551
00948														0.393083	-5.221048	-8.221494	0.856354	-0.514342	0.045923	-0.413088	-0.735696	-0.536758	0.309863	0.440685	-0.842486
00949														0.411872	-5.232762	-8.271373	0.856353	-0.514338	0.045999	-0.413019	-0.735674	-0.536842	0.309959	0.440728	-0.842428
00950														0.430934	-5.262012	-8.246006	0.856340	-0.514353	0.046067	-0.412961	-0.735625	-0.536954	0.310072	0.440791	-0.842353
00951														0.383224	-5.249554	-8.266288	0.856331	-0.514356	0.046201	-0.412860	-0.735595	-0.537072	0.310231	0.440838	-0.842270
00952														0.464031	-5.247602	-8.249344	0.856328	-0.514345	0.046374	-0.412735	-0.735591	-0.537174	0.310405	0.440858	-0.842195
00953														0.467851	-5.246280	-8.224680	0.856319	-0.514353	0.046472	-0.412655	-0.735552	-0.537288	0.310539	0.440913	-0.842117
00954														0.482421	-5.279425	-8.247637	0.856304	-0.514366	0.046588	-0.412575	-0.735519	-0.537395	0.310684	0.440952	-0.842043
00955														0.460080	-5.272293	-8.245635	0.856311	-0.514352	0.046628	-0.412521	-0.735501	-0.537461	0.310739	0.440998	-0.841999
00956														0.463213	-5.270610	-8.221236	0.856303	-0.514356	0.046720	-0.412454	-0.735482	-0.537538	0.310848	0.441026	-0.841944
00957														0.468678	-5.249557	-8.247838	0.856297	-0.514366	0.046733	-0.412434	-0.735448	-0.537601	0.310893	0.441072	-0.841903
00958														0.461685	-5.272754	-8.245251	0.856292	-0.514371	0.046769	-0.412406	-0.735432	-0.537644	0.310943	0.441093	-0.841874
00959														0.487487	-5.278065	-8.222915	0.856270	-0.514408	0.046763	-0.412441	-0.735413	-0.537644	0.310958	0.441082	-0.841874
00960														0.459428	-5.273819	-8.269996	0.856266	-0.514416	0.046742	-0.412463	-0.735411	-0.537629	0.310940	0.441074	-0.841885
00961														0.440866	-5.261939	-8.220224	0.856267	-0.514417	0.046705	-0.412483	-0.735406	-0.537621	0.310908	0.441083	-0.841892
00962														0.431063	-5.286427	-8.242273	0.856255	-0.514438	0.046709	-0.412503	-0.735402	-0.537611	0.310917	0.441064	-0.841898
00963														0.438682	-5.262457	-8.245313	0.856256	-0.514431	0.046757	-0.412496	-0.735447	-0.537554	0.310922	0.440997	-0.841932
00964														0.446206	-5.238404	-8.248406	0.856257	-0.514430	0.046743	-0.412512	-0.735458	-0.537527	0.310897	0.440980	-0.841950
00965														0.448646	-5.235777	-8.224652	0.856251	-0.514440	0.046749	-0.412527	-0.735468	-0.537502	0.310895	0.440952	-0.841966
00966														0.469518	-5.244425	-8.251054	0.856254	-0.514434	0.046751	-0.412530	-0.735484	-0.537477	0.310882	0.440931	-0.841981
00967														0.476919	-5.220536	-8.254040	0.856238	-0.514461	0.046757	-0.412559	-0.735486	-0.537453	0.310887	0.440898	-0.841997
00968														0.444010	-5.254991	-8.199203	0.856242	-0.514457	0.046741	-0.412564	-0.735485	-0.537450	0.310872	0.440904	-0.841999
00969														0.471931	-5.240425	-8.228179	0.856253	-0.514440	0.046717	-0.412581	-0.735517	-0.537393	0.310818	0.440870	-0.842037
00970														0.474076	-5.237692	-8.204516	0.856258	-0.514436	0.046672	-0.412605	-0.735518	-0.537374	0.310772	0.440873	-0.842052
00971														0.470931	-5.238836	-8.229248	0.856248	-0.514464	0.046554	-0.412694	-0.735492	-0.537341	0.310682	0.440885	-0.842079
00972														0.493216	-5.245439	-8.231594	0.856246	-0.514473	0.046476	-0.412755	-0.735493	-0.537292	0.310604	0.440871	-0.842115
00973														0.430122	-5.198891	-8.229544	0.856255	-0.514468	0.046365	-0.412818	-0.735491	-0.537248	0.310498	0.440881	-0.842149
00974														0.405063	-5.269506	-8.246725	0.856265	-0.514456	0.046306	-0.412837	-0.735487	-0.537238	0.310443	0.440901	-0.842159
00975														0.389152	-5.238352	-8.247824	0.856265	-0.514453	0.046346	-0.412815	-0.735496	-0.537242	0.310473	0.440890	-0.842154
00976														0.450566	-5.206620	-8.256547	0.856271	-0.514439	0.046393	-0.412775	-0.735505	-0.537261	0.310510	0.440892	-0.842139
00977														0.467146	-5.236932	-8.255946	0.856252	-0.514463	0.046473	-0.412755	-0.735507	-0.537274	0.310588	0.440860	-0.842127
00978														0.500416	-5.219238	-8.236047	0.856267	-0.514440	0.046457	-0.412721	-0.735484	-0.537332	0.310593	0.440926	-0.842090
00979														0.374902	-5.206870	-8.249051	0.856286	-0.514407	0.046474	-0.412672	-0.735484	-0.537369	0.310608	0.440963	-0.842066
00980														0.391772	-5.237464	-8.248264	0.856289	-0.514386	0.046644	-0.412558	-0.735511	-0.537420	0.310748	0.440944	-0.842024
00981														0.387224	-5.182032	-8.227098	0.856306	-0.514343	0.046799	-0.412416	-0.735520	-0.537516	0.310889	0.440977	-0.841954
00982														0.371036	-5.153822	-8.251649	0.856326	-0.514286	0.047069	-0.412204	-0.735556	-0.537630	0.311117	0.440985	-0.841866
00983														0.266742	-5.188635	-8.163908	0.856336	-0.514239	0.047406	-0.411961	-0.735593	-0.537766	0.311411	0.440979	-0.841760
00984														0.162650	-5.111258	-8.232471	0.856354	-0.514155	0.047986	-0.411600	-0.735740	-0.537840	0.311839	0.440831	-0.841680
00985														0.392834	-5.132525	-8.252321	0.856395	-0.514006	0.048834	-0.411045	-0.735960	-0.537963	0.312456	0.440636	-0.841553
00986														0.405670	-5.191252	-8.296286	0.856450	-0.513822	0.049798	-0.410378	-0.736184	-0.538166	0.313182	0.440476	-0.841367
00987														0.488260	-5.135434	-8.256540	0.856509	-0.513623	0.050827	-0.409582	-0.736311	-0.538598	0.314061	0.440496	-0.841028
00988														0.651608	-5.137620	-8.268296	0.856577	-0.513415	0.051778	-0.408781	-0.736376	-0.539118	0.314919	0.440630	-0.840637
00989														0.692173	-5.203889	-8.262627	0.856656	-0.513203	0.052570	-0.408001	-0.736339	-0.539759	0.315715	0.440939	-0.840177
00990														0.780948	-5.126206	-8.198897	0.856681	-0.513103	0.053136	-0.407382	-0.736141	-0.540497	0.316446	0.441386	-0.839667
00991														0.875972	-5.068561	-8.281855	0.856631	-0.513170	0.053286	-0.407058	-0.735710	-0.541327	0.316995	0.442027	-0.839122
00992														0.737722	-5.188702	-8.278969	0.856508	-0.513393	0.053121	-0.406955	-0.735046	-0.542306	0.317462	0.442871	-0.838500
00993														0.676122	-5.306747	-8.258552	0.856327	-0.513731	0.052769	-0.407015	-0.734253	-0.543334	0.317873	0.443793	-0.837857
00994														0.594264	-5.413823	-8.187575	0.856131	-0.514106	0.052288	-0.407138	-0.733371	-0.544432	0.318242	0.444817	-0.837174
00995														0.424109	-5.453071	-8.212222	0.855938	-0.514475	0.051817	-0.407271	-0.732520	-0.545477	0.318591	0.445791	-0.836523
00996														0.424913	-5.442188	-8.232585	0.855745	-0.514834	0.051447	-0.407313	-0.731649	-0.546612	0.319055	0.446806	-0.835804
00997														0.459257	-5.413927	-8.232758	0.855563	-0.515167	0.051132	-0.407312	-0.730807	-0.547739	0.319545	0.447798	-0.835085
00998														0.291368	-5.453884	-8.256539	0.855405	-0.515446	0.050963	-0.407175	-0.729996	-0.548921	0.320142	0.448799	-0.834319
00999														0.349277	-5.452637	-8.206488	0.855255	-0.515687	0.051046	-0.406871	-0.729244	-0.550145	0.320927	0.449745	-0.833508
01000														0.358345	-5.441192	-8.201454	0.855151	-0.515833	0.051317	-0.406389	-0.728568	-0.551395	0.321816	0.450671	-0.832664
01001														0.346049	-5.422789	-8.194545	0.855044	-0.515964	0.051772	-0.405778	-0.727907	-0.552716	0.322867	0.451589	-0.831760
01002														0.362790	-5.486874	-8.157406	0.854981	-0.515998	0.052474	-0.404961	-0.727343	-0.554056	0.324058	0.452458	-0.830824
01003														0.516227	-5.521154	-8.160169	0.854913	-0.516039	0.053173	-0.404150	-0.726776	-0.555391	0.325249	0.453320	-0.829888
01004														0.502682	-5.508533	-8.200706	0.854827	-0.516110	0.053864	-0.403322	-0.726131	-0.556835	0.326501	0.454273	-0.828875
01005														0.583472	-5.618902	-8.163493	0.854663	-0.516299	0.054658	-0.402554	-0.725473	-0.558247	0.327875	0.455110	-0.827873
01006														0.603216	-5.588857	-8.183716	0.854496	-0.516498	0.055365	-0.401808	-0.724751	-0.559720	0.329220	0.456032	-0.826830
01007														0.652349	-5.559013	-8.132707	0.854340	-0.516681	0.056069	-0.401054	-0.724046	-0.561172	0.330544	0.456945	-0.825798
01008														0.501932	-5.736084	-8.164994	0.854238	-0.516778	0.056727	-0.400210	-0.723319	-0.562709	0.331828	0.457984	-0.824707
01009														0.605877	-5.854398	-8.127206	0.854040	-0.517017	0.057527	-0.399440	-0.722595	-0.564185	0.333262	0.458858	-0.823642
01010														0.590539	-5.860719	-8.115446	0.853852	-0.517242	0.058298	-0.398694	-0.721904	-0.565595	0.334635	0.459691	-0.822620
01011														0.604395	-5.694633	-8.101115	0.853652	-0.517484	0.059060	-0.397985	-0.721230	-0.566952	0.335984	0.460475	-0.821631
01012														0.651921	-5.651680	-8.150316	0.853479	-0.517700	0.059674	-0.397271	-0.720461	-0.568429	0.337268	0.461435	-0.820565
01013														0.477065	-5.666212	-8.173256	0.853226	-0.518041	0.060326	-0.396593	-0.719577	-0.570020	0.338703	0.462431	-0.819413
01014														0.299362	-5.687635	-8.243924	0.852860	-0.518542	0.061187	-0.395900	-0.718608	-0.571721	0.340431	0.463375	-0.818163
01015														0.254803	-6.004243	-8.463364	0.852243	-0.519405	0.062449	-0.395332	-0.717601	-0.573378	0.342629	0.463969	-0.816908
01016														-0.064959	-5.929471	-8.558952	0.851025	-0.521192	0.064153	-0.395457	-0.716461	-0.574715	0.345500	0.463727	-0.815835
01017														-0.738207	-5.718062	-9.040776	0.848834	-0.524532	0.065937	-0.396815	-0.714576	-0.576124	0.349313	0.462869	-0.814698
01018														-2.027384	-6.062661	-9.640097	0.844790	-0.530752	0.068055	-0.400829	-0.711931	-0.576619	0.354492	0.459844	-0.814174
01019														-4.461153	-6.503701	-11.022127	0.837369	-0.541724	0.073130	-0.408407	-0.708918	-0.575012	0.363341	0.451630	-0.814870
01020														-6.376242	-7.251831	-11.509250	0.825617	-0.558221	0.082131	-0.420345	-0.705625	-0.570441	0.376386	0.436443	-0.817222
01021														-7.900067	-7.365703	-10.736781	0.809099	-0.580422	0.092027	-0.438357	-0.700376	-0.563309	0.391410	0.415433	-0.821105
01022														-7.593831	-8.782752	-10.562824	0.788129	-0.607624	0.098211	-0.463684	-0.691050	-0.554479	0.404784	0.391462	-0.826382
01023														-5.129429	-9.656474	-10.625680	0.764446	-0.637038	0.099023	-0.494922	-0.678324	-0.543074	0.413128	0.366142	-0.833826
01024														-4.345486	-7.796619	-9.041588	0.738117	-0.667593	0.097480	-0.529490	-0.662747	-0.529535	0.418118	0.339244	-0.842669
01025														-3.650553	-6.431464	-7.670539	0.709804	-0.698101	0.093983	-0.564849	-0.643810	-0.516192	0.420861	0.313309	-0.851301
01026														-2.803957	-6.223166	-7.210654	0.679707	-0.727933	0.090068	-0.599359	-0.621997	-0.503873	0.422808	0.288503	-0.859069
01027														-1.979476	-6.605151	-7.241539	0.648477	-0.756358	0.086030	-0.632312	-0.598127	-0.492367	0.423862	0.264891	-0.866126
01028														-1.331565	-6.772982	-7.238789	0.616572	-0.782966	0.082479	-0.663310	-0.573045	-0.481289	0.424097	0.242040	-0.872673
01029														-0.743593	-6.554705	-6.940560	0.584419	-0.807571	0.079272	-0.692187	-0.547121	-0.470676	0.423476	0.220201	-0.878738
01030														-0.262465	-6.260877	-6.619721	0.552466	-0.830036	0.076301	-0.718663	-0.520702	-0.460862	0.422262	0.199776	-0.884186
01031														0.193096	-5.973413	-6.442347	0.521242	-0.850251	0.073351	-0.742512	-0.494200	-0.452153	0.420693	0.181217	-0.888919
01032														0.577399	-5.738053	-6.372049	0.491334	-0.868123	0.070377	-0.763532	-0.468194	-0.444763	0.419059	0.164792	-0.892879
01033														0.929071	-5.435495	-6.428027	0.463493	-0.883546	0.067232	-0.781555	-0.443383	-0.438842	0.417547	0.150855	-0.896045
01034														1.195538	-5.214337	-6.557888	0.438322	-0.896553	0.063771	-0.796568	-0.420346	-0.434499	0.416357	0.139652	-0.898412
01035														1.404034	-5.373509	-7.078735	0.416012	-0.907403	0.059618	-0.808976	-0.399235	-0.431474	0.415322	0.131269	-0.900153
01036														1.362151	-5.365212	-7.535483	0.396684	-0.916328	0.054634	-0.819185	-0.380230	-0.429372	0.414219	0.125570	-0.901474
01037														1.144241	-5.041780	-7.611170	0.380063	-0.923669	0.048855	-0.827653	-0.363187	-0.427885	0.412968	0.122188	-0.902512
01038														1.080155	-4.603480	-7.471457	0.365543	-0.929817	0.042643	-0.834705	-0.347735	-0.427023	0.411882	0.120501	-0.903235
01039														1.511106	-4.366337	-7.456216	0.352407	-0.935171	0.035562	-0.840809	-0.333075	-0.426734	0.410914	0.120483	-0.903678
01040														1.189113	-4.289114	-7.910434	0.340101	-0.939979	0.027766	-0.846168	-0.318774	-0.427063	0.410281	0.121750	-0.903796
01041														0.622143	-4.352462	-8.547349	0.328429	-0.944291	0.021194	-0.850817	-0.305514	-0.427518	0.410176	0.122377	-0.903759
01042														0.647019	-4.135621	-8.921268	0.317399	-0.948140	0.016968	-0.854825	-0.293815	-0.427723	0.410527	0.121254	-0.903751
01043														1.163808	-3.710104	-9.058805	0.306902	-0.951640	0.013901	-0.858470	-0.283101	-0.427649	0.410903	0.119313	-0.903838
01044														1.413805	-3.247752	-9.180991	0.297022	-0.954811	0.010699	-0.861880	-0.272903	-0.427419	0.411024	0.117732	-0.903990
01045														1.157331	-3.002835	-9.450635	0.287902	-0.957634	0.007039	-0.865086	-0.263217	-0.427017	0.410779	0.116850	-0.904216
01046														0.751200	-2.944891	-9.787192	0.279566	-0.960120	0.003407	-0.868131	-0.254293	-0.426244	0.410112	0.116205	-0.904602
01047														0.413758	-2.854115	-10.084905	0.271702	-0.962382	-0.000058	-0.871248	-0.245947	-0.424779	0.408785	0.115464	-0.905297
01048														0.028480	-2.732804	-10.220579	0.263774	-0.964579	-0.003367	-0.874639	-0.237705	-0.422496	0.406730	0.114388	-0.906359
01049														-0.395975	-2.698700	-10.271544	0.255192	-0.966869	-0.006479	-0.878471	-0.229051	-0.419315	0.403938	0.112697	-0.907818
01050														-0.630863	-2.771422	-10.388392	0.245472	-0.969363	-0.008903	-0.882793	-0.219737	-0.415202	0.400525	0.109780	-0.909686
01051														-0.715088	-2.817319	-10.401858	0.234265	-0.972116	-0.010535	-0.887701	-0.209478	-0.410008	0.396368	0.105403	-0.912021
01052														-0.565388	-2.903238	-10.268469	0.221450	-0.975104	-0.011468	-0.893106	-0.198078	-0.403890	0.391564	0.099683	-0.914736
01053														-0.276852	-3.044511	-10.082934	0.207138	-0.978239	-0.011943	-0.898893	-0.185490	-0.396970	0.386116	0.092963	-0.917754
01054														-0.013406	-3.169096	-9.854154	0.191491	-0.981421	-0.011974	-0.904913	-0.171813	-0.389374	0.380083	0.085398	-0.921002
01055														0.238732	-3.167040	-9.647312	0.174868	-0.984524	-0.011520	-0.910982	-0.157345	-0.381254	0.373541	0.077164	-0.924399
01056														0.416468	-3.262469	-9.413317	0.157580	-0.987451	-0.010437	-0.916877	-0.142376	-0.372916	0.366750	0.068333	-0.927807
01057														0.722858	-3.446530	-9.299908	0.139652	-0.990159	-0.009059	-0.922563	-0.126784	-0.364422	0.359687	0.059250	-0.931190
01058														0.786598	-3.757510	-9.337325	0.121178	-0.992603	-0.007462	-0.927980	-0.110614	-0.355834	0.352377	0.050044	-0.934519
01059														0.733725	-3.950184	-9.302099	0.102175	-0.994752	-0.005386	-0.933158	-0.093970	-0.346966	0.344639	0.040477	-0.937862
01060														0.556983	-4.274333	-9.397825	0.082972	-0.996550	-0.002085	-0.938053	-0.077395	-0.337736	0.336410	0.029978	-0.941238
01061														0.919798	-4.121365	-9.140174	0.063728	-0.997965	0.002081	-0.942719	-0.060884	-0.327984	0.327443	0.018940	-0.944681
01062														1.332311	-3.699843	-8.781795	0.044397	-0.998996	0.006019	-0.947022	-0.044004	-0.318140	0.318085	0.008424	-0.948025
01063														1.492605	-3.336484	-8.368478	0.025067	-0.999644	0.009109	-0.950776	-0.026655	-0.308730	0.308863	-0.000922	-0.951106
01064														1.446287	-3.065732	-8.206999	0.005931	-0.999913	0.011765	-0.953867	-0.009188	-0.300089	0.300171	-0.009442	-0.953839
01065														1.364980	-2.999332	-8.334595	-0.012728	-0.999810	0.014746	-0.956287	0.007862	-0.292323	0.292152	-0.017822	-0.956206
01066														1.461839	-3.037660	-8.536097	-0.030824	-0.999356	0.018347	-0.958099	0.024311	-0.285403	0.284773	-0.026375	-0.958232
01067														1.768958	-3.176330	-8.768886	-0.048467	-0.998575	0.022338	-0.959442	0.040326	-0.279007	0.277708	-0.034955	-0.960029
01068														1.611927	-3.040000	-8.918763	-0.065716	-0.997492	0.026275	-0.960426	0.056088	-0.272829	0.270671	-0.043165	-0.961704
01069														1.015491	-2.729800	-8.893233	-0.082792	-0.996094	0.030692	-0.961087	0.071662	-0.266790	0.263549	-0.051586	-0.963266
01070														0.332712	-2.250472	-8.847733	-0.100068	-0.994327	0.036070	-0.961370	0.087282	-0.261054	0.256425	-0.060799	-0.964650
01071														-0.536315	-2.119033	-9.020764	-0.117964	-0.992094	0.042820	-0.961236	0.103260	-0.255661	0.249218	-0.071319	-0.965818
01072														-1.056819	-2.217761	-9.223290	-0.136958	-0.989260	0.051058	-0.960644	0.120068	-0.250492	0.241671	-0.083356	-0.966771
01073														-1.134202	-2.416462	-9.384156	-0.157356	-0.985717	0.060003	-0.959544	0.138247	-0.245281	0.233482	-0.096172	-0.967593
01074														-0.817653	-2.545689	-9.320792	-0.179211	-0.981427	0.068450	-0.957839	0.158176	-0.239844	0.224562	-0.108546	-0.968395
01075														-0.508657	-2.559565	-9.096555	-0.202472	-0.976395	0.075226	-0.955367	0.180067	-0.234202	0.215128	-0.119288	-0.969273
01076														-0.586300	-2.527838	-8.831546	-0.227140	-0.970567	0.080044	-0.951942	0.203936	-0.228510	0.205461	-0.128101	-0.970245
01077														-0.566886	-2.360086	-8.547224	-0.252901	-0.963851	0.083858	-0.947486	0.229203	-0.223016	0.195734	-0.135855	-0.971201
01078														-0.259929	-2.324864	-8.273571	-0.279013	-0.956283	0.087603	-0.942072	0.254895	-0.218010	0.186150	-0.143356	-0.972007
01079														0.277057	-2.413020	-8.203737	-0.304644	-0.948044	0.091676	-0.935949	0.280124	-0.213377	0.176610	-0.150808	-0.972659
01080														0.961818	-2.435739	-8.052662	-0.329668	-0.939286	0.095185	-0.929123	0.304901	-0.209201	0.167478	-0.157406	-0.973229
01081														1.165282	-2.867859	-8.140629	-0.353890	-0.930213	0.097295	-0.921676	0.329165	-0.205336	0.158980	-0.162341	-0.973843
01082														1.216776	-2.778804	-7.733603	-0.376788	-0.921018	0.098778	-0.913929	0.352267	-0.201598	0.150880	-0.166236	-0.974475
01083														0.861071	-2.535422	-7.253737	-0.397849	-0.911971	0.100127	-0.906163	0.373540	-0.198335	0.143474	-0.169639	-0.975007
01084														1.201696	-2.531714	-6.806787	-0.416289	-0.903456	0.102325	-0.898884	0.392006	-0.195804	0.136789	-0.173489	-0.975290
01085														1.691256	-2.724428	-6.493281	-0.432354	-0.895704	0.103846	-0.892031	0.408046	-0.194369	0.131723	-0.176670	-0.975416
01086														1.502224	-3.430068	-6.503912	-0.446357	-0.888819	0.103761	-0.885557	0.422068	-0.194031	0.128664	-0.178494	-0.975492
01087														0.954249	-4.171394	-6.473474	-0.458335	-0.882878	0.102254	-0.879641	0.434154	-0.194273	0.127125	-0.178989	-0.975603
01088														0.422954	-4.341001	-6.152332	-0.468567	-0.877751	0.099989	-0.874289	0.444502	-0.195030	0.126742	-0.178804	-0.975687
01089														0.162276	-4.286023	-5.677328	-0.477516	-0.873214	0.097343	-0.869306	0.453452	-0.196691	0.127613	-0.178544	-0.975621
01090														0.173379	-4.562459	-5.309060	-0.485694	-0.869031	0.094263	-0.864390	0.461430	-0.199779	0.130118	-0.178512	-0.975296
01091														0.358248	-4.943474	-5.281239	-0.493222	-0.865152	0.090796	-0.859477	0.468538	-0.204378	0.134277	-0.178841	-0.974672
01092														0.864748	-5.187410	-5.326178	-0.499958	-0.861667	0.087024	-0.854678	0.474665	-0.210284	0.139888	-0.179510	-0.973760
01093														1.601986	-5.334018	-5.450250	-0.505604	-0.858783	0.082808	-0.850136	0.479540	-0.217508	0.147082	-0.180371	-0.972540
01094														2.499298	-5.451548	-5.615040	-0.509798	-0.856746	0.078050	-0.846047	0.482844	-0.225977	0.155919	-0.181237	-0.971001
01095														-5.479538	3.033926	-11.565023	-0.513758	-0.854566	0.075959	-0.842080	0.485340	-0.235258	0.164178	-0.184829	-0.968960
01096														4.184370	7.933558	-16.180745	-0.519465	-0.849550	0.091768	-0.838461	0.486067	-0.246417	0.164738	-0.204949	-0.964809
01097														8.738303	4.547763	-6.491566	-0.527587	-0.844653	0.090626	-0.831027	0.491040	-0.261293	0.176201	-0.213167	-0.960996
01098														7.638266	-4.284375	-4.822126	-0.535994	-0.840264	0.081648	-0.820785	0.496040	-0.283296	0.197542	-0.218861	-0.955551
01099														9.822697	-10.886353	-10.870053	-0.537784	-0.839072	0.082133	-0.815773	0.493294	-0.301952	0.212844	-0.229386	-0.949779
01100														11.519989	-6.844321	-9.069507	-0.533770	-0.841925	0.079069	-0.814400	0.486629	-0.316141	0.227689	-0.233141	-0.945412
01101														7.743495	-2.145923	-7.892574	-0.529081	-0.845638	0.070494	-0.811826	0.480240	-0.332126	0.247004	-0.232951	-0.940597
01102														1.888103	-2.486711	-10.763626	-0.523025	-0.850039	0.062276	-0.809075	0.472185	-0.349913	0.268034	-0.233399	-0.934710
01103														-2.969800	-4.935987	-9.754975	-0.516234	-0.854641	0.055605	-0.806539	0.463285	-0.367235	0.288093	-0.234427	-0.928465
01104														-5.002648	-5.863121	-9.792395	-0.511047	-0.858115	0.049682	-0.803026	0.456026	-0.383653	0.306562	-0.235961	-0.922140
01105														-6.727746	-5.430554	-10.116675	-0.508460	-0.859981	0.043592	-0.797984	0.451573	-0.399129	0.323558	-0.237727	-0.915858
01106														-5.494868	-4.328978	-9.618791	-0.507420	-0.860744	0.040560	-0.792508	0.447680	-0.414143	0.338313	-0.242288	-0.909308
01107														-1.161886	-5.358938	-10.455547	-0.506281	-0.861524	0.038155	-0.786617	0.443224	-0.429868	0.353431	-0.247647	-0.902085
01108														1.182866	-6.770412	-9.781128	-0.504518	-0.862539	0.038571	-0.781815	0.437432	-0.444318	0.366370	-0.254322	-0.895038
01109														0.649433	-5.611794	-9.569306	-0.502464	-0.863779	0.037632	-0.776581	0.431752	-0.458816	0.380068	-0.259763	-0.887734
01110														-0.740909	-5.395079	-9.258564	-0.500457	-0.864937	0.037778	-0.771437	0.425701	-0.472931	0.392974	-0.265825	-0.880289
01111														-0.697280	-5.545307	-9.269624	-0.498613	-0.865929	0.039384	-0.766435	0.419188	-0.486681	0.404922	-0.272851	-0.872692
01112														0.820736	-9.727987	-12.521629	-0.496328	-0.867303	0.038011	-0.761747	0.414084	-0.498273	0.416414	-0.276262	-0.866186
01113														0.858321	-11.579734	-10.707876	-0.494729	-0.868332	0.035252	-0.758462	0.411617	-0.505279	0.424240	-0.276713	-0.862236
01114														-1.722436	-7.904239	-11.158886	-0.494764	-0.868306	0.035406	-0.756477	0.410275	-0.509330	0.427729	-0.278782	-0.859842
01115														-0.482468	-7.478605	-8.766429	-0.494711	-0.868340	0.035311	-0.755660	0.409736	-0.510974	0.429231	-0.279467	-0.858871
01116														1.250713	-5.386250	-8.923401	-0.494716	-0.868341	0.035218	-0.754858	0.409275	-0.512526	0.430634	-0.280139	-0.857949
01117														-0.264750	-5.391385	-8.617059	-0.494486	-0.868482	0.034965	-0.754214	0.408736	-0.513903	0.432024	-0.280489	-0.857135
01118														-0.642008	-4.969163	-8.492980	-0.494479	-0.868482	0.035055	-0.753510	0.408217	-0.515346	0.433259	-0.281242	-0.856265
01119														0.264047	-4.929375	-8.401367	-0.494248	-0.868574	0.036030	-0.753160	0.407140	-0.516707	0.434129	-0.282517	-0.855404
01120														0.214222	-4.633155	-8.425713	-0.494022	-0.868679	0.036592	-0.752573	0.406159	-0.518333	0.435403	-0.283606	-0.854396
01121														0.006285	-5.186644	-8.464611	-0.493712	-0.868823	0.037344	-0.751936	0.404930	-0.520215	0.436853	-0.284916	-0.853219
01122														0.235366	-5.192235	-8.440698	-0.493388	-0.868988	0.037796	-0.751293	0.403861	-0.521973	0.438324	-0.285931	-0.852124
01123														0.051750	-5.475553	-8.505583	-0.492970	-0.869195	0.038477	-0.750787	0.402634	-0.523645	0.439658	-0.287029	-0.851067
01124														0.401588	-5.750427	-8.453246	-0.492691	-0.869329	0.039026	-0.750297	0.401657	-0.525096	0.440806	-0.287991	-0.850148
01125														0.204126	-5.244137	-8.380112	-0.492469	-0.869420	0.039786	-0.749942	0.400708	-0.526327	0.441657	-0.289037	-0.849351
01126														0.821225	-5.270394	-8.379089	-0.492328	-0.869475	0.040323	-0.749496	0.399926	-0.527556	0.442571	-0.289952	-0.848563
01127														0.989304	-5.284007	-8.358306	-0.492390	-0.869437	0.040388	-0.748823	0.399517	-0.528819	0.443640	-0.290628	-0.847773
01128														0.630527	-5.184571	-8.284905	-0.492594	-0.869334	0.040123	-0.747977	0.399361	-0.530132	0.444838	-0.291151	-0.846965
01129														0.451061	-5.187226	-8.361904	-0.492798	-0.869226	0.039940	-0.747106	0.399141	-0.531526	0.446075	-0.291774	-0.846100
01130														0.555053	-5.294912	-8.249475	-0.492989	-0.869131	0.039673	-0.746194	0.398929	-0.532963	0.447388	-0.292348	-0.845208
01131														0.345230	-5.344599	-8.325782	-0.493195	-0.869030	0.039314	-0.745237	0.398763	-0.534425	0.448754	-0.292874	-0.844301
01132														0.321588	-5.358313	-8.329977	-0.493309	-0.868977	0.039059	-0.744335	0.398464	-0.535903	0.450124	-0.293439	-0.843375
01133														0.250310	-5.302114	-8.301468	-0.493413	-0.868925	0.038902	-0.743444	0.398099	-0.537408	0.451481	-0.294086	-0.842424
01134														0.161166	-5.130268	-8.240548	-0.493501	-0.868875	0.038904	-0.742543	0.397613	-0.539012	0.452865	-0.294891	-0.841399
01135														0.285272	-5.186681	-8.289106	-0.493541	-0.868845	0.039058	-0.741619	0.396962	-0.540761	0.454332	-0.295854	-0.840269
01136														0.407306	-5.151890	-8.284886	-0.493519	-0.868849	0.039241	-0.740623	0.396174	-0.542701	0.455980	-0.296896	-0.839009
01137														0.347188	-5.209481	-8.265510	-0.493449	-0.868877	0.039514	-0.739533	0.395213	-0.544883	0.457819	-0.298094	-0.837581
01138														0.160579	-5.214539	-8.317073	-0.493399	-0.868890	0.039845	-0.738338	0.394170	-0.547253	0.459797	-0.299434	-0.836018
01139														0.273207	-5.463263	-8.291927	-0.493367	-0.868887	0.040297	-0.737098	0.393040	-0.549733	0.461817	-0.300923	-0.834368
01140														0.402343	-5.410340	-8.198715	-0.493380	-0.868859	0.040748	-0.735810	0.391930	-0.552245	0.463852	-0.302449	-0.832686
01141														0.461630	-5.611726	-8.132876	-0.493458	-0.868802	0.041022	-0.734440	0.390950	-0.554757	0.465936	-0.303877	-0.831001
01142														0.344294	-5.610771	-8.110626	-0.493519	-0.868761	0.041160	-0.733075	0.390040	-0.557199	0.468018	-0.305161	-0.829359
01143														0.477299	-5.626763	-8.075168	-0.493598	-0.868714	0.041197	-0.731736	0.389234	-0.559517	0.470025	-0.306322	-0.827794
01144														0.369443	-5.709045	-8.071637	-0.493695	-0.868660	0.041175	-0.730452	0.388521	-0.561686	0.471917	-0.307378	-0.826325
01145														0.315534	-5.757874	-8.017533	-0.493773	-0.868613	0.041222	-0.729282	0.387818	-0.563689	0.473641	-0.308397	-0.824958
01146														0.222818	-5.690962	-8.040397	-0.493875	-0.868547	0.041401	-0.728255	0.387148	-0.565474	0.475113	-0.309424	-0.823726
01147														0.267635	-5.592823	-8.052434	-0.493926	-0.868505	0.041657	-0.727330	0.386436	-0.567149	0.476474	-0.310428	-0.822561
01148														0.369318	-5.593256	-8.015606	-0.493991	-0.868457	0.041907	-0.726410	0.385745	-0.568796	0.477809	-0.311422	-0.821410
01149														0.454085	-5.611317	-8.043494	-0.494151	-0.868357	0.042082	-0.725427	0.385171	-0.570437	0.479134	-0.312409	-0.820263
01150														0.509032	-5.558074	-8.028658	-0.494375	-0.868233	0.042004	-0.724317	0.384749	-0.572130	0.480582	-0.313271	-0.819086
01151														0.459354	-5.507537	-8.079018	-0.494694	-0.868060	0.041833	-0.723052	0.384396	-0.573965	0.482155	-0.314184	-0.817811
01152														0.418940	-5.617273	-8.049394	-0.495069	-0.867860	0.041552	-0.721652	0.384091	-0.575927	0.483864	-0.315109	-0.816444
01153														0.409147	-5.568810	-8.071989	-0.495559	-0.867591	0.041305	-0.720135	0.383815	-0.578007	0.485620	-0.316182	-0.814986
01154														0.362923	-5.459373	-8.084006	-0.496059	-0.867321	0.040990	-0.718453	0.383489	-0.580311	0.487597	-0.317318	-0.813363
01155														0.390713	-5.645893	-8.065469	-0.496524	-0.867070	0.040655	-0.716593	0.383022	-0.582914	0.489856	-0.318564	-0.811516
01156														0.351415	-5.608946	-8.038064	-0.497123	-0.866741	0.040352	-0.714590	0.382590	-0.585650	0.492168	-0.319975	-0.809559
01157														0.318725	-5.682591	-8.015960	-0.497700	-0.866427	0.039991	-0.712415	0.382062	-0.588636	0.494731	-0.321454	-0.807408
01158														0.373864	-5.656435	-7.952562	-0.498297	-0.866100	0.039644	-0.710125	0.381471	-0.591779	0.497416	-0.323034	-0.805125
01159														0.498197	-5.710543	-7.993279	-0.499000	-0.865713	0.039235	-0.707555	0.380861	-0.595240	0.500364	-0.324786	-0.802590
01160														0.349596	-5.743269	-7.968914	-0.499816	-0.865264	0.038752	-0.704742	0.380267	-0.598945	0.503509	-0.326673	-0.799852
01161														0.263154	-5.741852	-7.951476	-0.500659	-0.864800	0.038241	-0.701665	0.379551	-0.602999	0.506959	-0.328730	-0.796825
01162														0.293198	-5.922962	-7.923189	-0.501505	-0.864328	0.037808	-0.698441	0.378690	-0.607267	0.510560	-0.330954	-0.793598
01163														0.281853	-5.891846	-7.838396	-0.502277	-0.863900	0.037338	-0.695013	0.377641	-0.611837	0.514466	-0.333262	-0.790102
01164														0.236860	-6.104083	-7.775513	-0.503046	-0.863470	0.036934	-0.691497	0.376486	-0.616515	0.518437	-0.335675	-0.786476
01165														0.328122	-6.113350	-7.664121	-0.503787	-0.863056	0.036515	-0.687924	0.375275	-0.621233	0.522455	-0.338089	-0.782775
01166														0.397659	-6.166294	-7.606925	-0.504541	-0.862636	0.036018	-0.684276	0.374085	-0.625961	0.526503	-0.340469	-0.779022
01167														0.384764	-6.179191	-7.560860	-0.505328	-0.862200	0.035419	-0.680599	0.372988	-0.630607	0.530498	-0.342769	-0.775294
01168														0.339856	-6.269166	-7.460409	-0.506114	-0.861766	0.034749	-0.676945	0.371958	-0.635132	0.534410	-0.344973	-0.771622
01169														0.301852	-6.269912	-7.469399	-0.506832	-0.861370	0.034114	-0.673361	0.370878	-0.639558	0.538244	-0.347120	-0.767986
01170														0.393902	-6.340150	-7.449846	-0.507553	-0.860971	0.033436	-0.669782	0.369839	-0.643904	0.542017	-0.349210	-0.764376
01171														0.371474	-6.479025	-7.336045	-0.508355	-0.860525	0.032740	-0.666260	0.368936	-0.648061	0.545594	-0.351258	-0.760884
01172														0.293018	-6.433994	-7.334054	-0.509235	-0.860030	0.032063	-0.662849	0.368175	-0.651981	0.548918	-0.353264	-0.757557
01173														0.377276	-6.466847	-7.308741	-0.510204	-0.859481	0.031364	-0.659453	0.367533	-0.655775	0.552099	-0.355263	-0.754305
01174														0.271870	-6.473641	-7.262242	-0.511297	-0.858858	0.030615	-0.656048	0.367053	-0.659449	0.555136	-0.357260	-0.751126
01175														0.154562	-6.481812	-7.289084	-0.512388	-0.858233	0.029895	-0.652727	0.366602	-0.662986	0.558037	-0.359219	-0.748035
01176														0.158022	-6.472026	-7.279382	-0.513463	-0.857612	0.029280	-0.649451	0.366079	-0.666483	0.560865	-0.361230	-0.744945
01177														0.194293	-6.517528	-7.313648	-0.514529	-0.856989	0.028803	-0.646214	0.365465	-0.669957	0.563619	-0.363326	-0.741841
01178														0.273300	-6.430319	-7.336897	-0.515594	-0.856364	0.028340	-0.642941	0.364812	-0.673453	0.566382	-0.365449	-0.738687
01179														0.320564	-6.520054	-7.335933	-0.516647	-0.855748	0.027781	-0.639437	0.364068	-0.677182	0.569383	-0.367628	-0.735291
01180														0.356033	-6.470605	-7.331159	-0.517760	-0.855094	0.027170	-0.635679	0.363261	-0.681141	0.572571	-0.369939	-0.731648
01181														0.421061	-6.464641	-7.276635	-0.518949	-0.854401	0.026288	-0.631415	0.362418	-0.685542	0.576201	-0.372360	-0.727558
01182														0.335073	-6.495785	-7.299004	-0.520295	-0.853614	0.025237	-0.626608	0.361519	-0.690410	0.580220	-0.375031	-0.722978
01183														0.057289	-6.551503	-7.333076	-0.521579	-0.852863	0.024089	-0.621186	0.360236	-0.695958	0.584879	-0.377961	-0.717678
01184														0.016929	-6.616927	-7.366719	-0.522846	-0.852104	0.023455	-0.615641	0.358436	-0.701790	0.589592	-0.381368	-0.711997
01185														0.047235	-6.763128	-7.398933	-0.524165	-0.851304	0.023078	-0.609654	0.356179	-0.708137	0.594620	-0.385250	-0.705698
01186														-0.100453	-6.797245	-7.291363	-0.525372	-0.850552	0.023350	-0.603502	0.353147	-0.714894	0.599808	-0.389677	-0.698843
01187														0.209577	-6.752784	-7.127635	-0.526395	-0.849906	0.023839	-0.596787	0.349363	-0.722351	0.605602	-0.394469	-0.691116
01188														-0.104369	-6.615707	-7.268460	-0.527191	-0.849395	0.024442	-0.589299	0.344733	-0.730675	0.612205	-0.399609	-0.682288
01189														0.187190	-6.868151	-7.280799	-0.527811	-0.848985	0.025304	-0.581097	0.339217	-0.739769	0.619469	-0.405163	-0.672385
01190														0.481920	-6.846879	-7.288582	-0.528389	-0.848597	0.026220	-0.571854	0.332905	-0.749772	0.627525	-0.411165	-0.661177
01191														0.441142	-6.646272	-7.074872	-0.528945	-0.848227	0.026977	-0.561276	0.325809	-0.760801	0.636543	-0.417563	-0.648425
01192														0.390412	-6.784536	-7.136165	-0.529601	-0.847801	0.027493	-0.549088	0.317938	-0.772928	0.646548	-0.424439	-0.633898
01193														0.291547	-6.963247	-7.008708	-0.530276	-0.847363	0.027986	-0.535340	0.309053	-0.786065	0.657433	-0.431813	-0.617511
01194														-0.052765	-8.108863	-7.090109	-0.530759	-0.847032	0.028826	-0.520313	0.298808	-0.799993	0.669006	-0.439602	-0.599317
01195														-0.196869	-7.290536	-6.651566	-0.531098	-0.846721	0.031604	-0.504953	0.286335	-0.814270	0.680410	-0.448416	-0.579626
01196														0.164051	-7.073941	-6.745581	-0.531289	-0.846479	0.034723	-0.487938	0.272233	-0.829341	0.692566	-0.457562	-0.557663
01197														0.021943	-6.879322	-6.777759	-0.530891	-0.846565	0.038513	-0.469272	0.255836	-0.845182	0.705648	-0.466772	-0.533090
01198														0.791330	-6.950179	-6.616414	-0.530487	-0.846633	0.042382	-0.448166	0.237674	-0.861776	0.719535	-0.476155	-0.505515
01199														0.963408	-6.124606	-6.541430	-0.530495	-0.846456	0.045678	-0.423907	0.218238	-0.879019	0.734083	-0.485679	-0.474593
01200														0.862803	-9.075737	-6.799014	-0.531267	-0.845853	0.047843	-0.395702	0.197808	-0.896823	0.749117	-0.495384	-0.439794
01201														-0.317542	-7.801655	-6.503199	-0.532209	-0.844945	0.053110	-0.365094	0.172459	-0.914857	0.763845	-0.506285	-0.400269
01202														0.916279	-6.540895	-6.622622	-0.534337	-0.843263	0.058227	-0.329318	0.144241	-0.933137	0.778481	-0.517785	-0.354775
01203														0.606294	-7.305208	-6.847909	-0.537108	-0.841221	0.062149	-0.287407	0.113239	-0.951091	0.793040	-0.528701	-0.302595
01204														-0.955813	-10.126453	-7.948318	-0.542061	-0.837803	0.065239	-0.239532	0.079630	-0.967618	0.805478	-0.540134	-0.243844
01205														-0.479676	-11.721141	-7.341629	-0.550367	-0.832060	0.069083	-0.187495	0.042542	-0.981344	0.813598	-0.553052	-0.179420
01206														1.752736	-11.161119	-7.296349	-0.561044	-0.824735	0.071001	-0.130560	0.003464	-0.991434	0.817425	-0.565509	-0.109621
01207														2.474693	-12.135790	-7.722873	-0.570955	-0.818098	0.068752	-0.069069	-0.035582	-0.996977	0.818071	-0.573977	-0.036189
01208														1.536981	-12.777315	-7.503684	-0.580912	-0.811467	0.063737	-0.004321	-0.075229	-0.997157	0.813955	-0.579536	0.040195
01209														0.105357	-14.636516	-5.960984	-0.594782	-0.801811	0.057735	0.062583	-0.117787	-0.991065	0.801447	-0.585854	0.120238
01210														1.821597	-14.426987	-5.234307	-0.611673	-0.789607	0.048756	0.129071	-0.160410	-0.978575	0.780510	-0.592275	0.200033
01211														1.957471	-14.934370	-4.778403	-0.629899	-0.775714	0.038650	0.192674	-0.204277	-0.959764	0.752399	-0.597108	0.278134
01212														1.679346	-12.205410	-7.766485	-0.648383	-0.760962	0.023144	0.250585	-0.242021	-0.937354	0.718893	-0.601965	0.347608
01213														1.763408	-23.277774	-11.366216	-0.669202	-0.743080	0.000550	0.295140	-0.266476	-0.917542	0.681954	-0.613858	0.397639
01214														7.959270	-31.603856	-20.518745	-0.683484	-0.729570	-0.024024	0.319788	-0.269678	-0.908300	0.656190	-0.628491	0.417628
01215														9.112329	-20.317478	-16.400440	-0.687887	-0.724450	-0.044549	0.328199	-0.255717	-0.909337	0.647377	-0.640142	0.413668
01216														8.606229	-14.762178	-11.492304	-0.684493	-0.726599	-0.059355	0.322606	-0.228885	-0.918443	0.653755	-0.647816	0.391075
01217														5.483016	-12.075017	-8.281119	-0.674900	-0.734519	-0.070659	0.308426	-0.193804	-0.931297	0.670361	-0.650325	0.357343
01218														3.109506	-9.074480	-5.589318	-0.664400	-0.743257	-0.078368	0.286567	-0.156504	-0.945191	0.690255	-0.650443	0.316974
01219														1.558857	-6.749312	-3.712426	-0.655362	-0.750687	-0.083486	0.259291	-0.119785	-0.958342	0.709414	-0.649708	0.273149
01220														0.888453	-5.156809	-1.931092	-0.648697	-0.756102	-0.086618	0.229182	-0.085548	-0.969617	0.725719	-0.648839	0.228780
01221														0.557184	-3.383865	-0.099671	-0.643855	-0.760014	-0.088488	0.198384	-0.054122	-0.978629	0.738983	-0.647649	0.185621
01222														0.364426	-1.534527	1.165098	-0.639919	-0.763128	-0.090216	0.169949	-0.026052	-0.985108	0.749414	-0.645721	0.146364
01223														0.055511	-0.604437	1.404242	-0.636569	-0.765600	-0.092934	0.145568	-0.000940	-0.989348	0.757357	-0.643317	0.112045
01224														-0.387455	-1.715898	0.458565	-0.633932	-0.767282	-0.096997	0.125520	0.021681	-0.991854	0.763135	-0.640943	0.082565
01225														-0.892455	-4.346123	-1.252975	-0.632836	-0.767598	-0.101550	0.106971	0.043222	-0.993322	0.766861	-0.639473	0.054758
01226														-1.141490	-6.396976	-2.726322	-0.633720	-0.766282	-0.105882	0.087721	0.064807	-0.994035	0.768573	-0.639228	0.026149
01227														-1.035492	-7.935668	-3.608955	-0.636325	-0.763550	-0.109921	0.066253	0.087872	-0.993926	0.768571	-0.639742	-0.005328
01228														-0.809667	-9.148796	-4.100360	-0.640214	-0.759695	-0.113971	0.042416	0.113178	-0.992669	0.767025	-0.640354	-0.040235
01229														-0.831057	-9.840695	-4.105066	-0.645011	-0.755022	-0.117913	0.015655	0.141213	-0.989855	0.764013	-0.640313	-0.079264
01230														-0.781584	-10.288066	-3.711489	-0.650673	-0.749607	-0.121301	-0.013386	0.171040	-0.985173	0.759240	-0.639402	-0.121325
01231														-0.644165	-10.265402	-2.815216	-0.657125	-0.743674	-0.123028	-0.044890	0.201534	-0.978452	0.752444	-0.637442	-0.165817
01232														-0.474968	-9.502722	-1.733920	-0.663755	-0.737835	-0.122588	-0.077548	0.230904	-0.969881	0.743919	-0.634257	-0.210482
01233														-0.525303	-8.473361	-1.351240	-0.669892	-0.732752	-0.119661	-0.110515	0.257783	-0.959862	0.734187	-0.629779	-0.253667
01234														-0.760377	-8.463650	-2.143032	-0.675236	-0.728717	-0.114141	-0.142891	0.281048	-0.948996	0.723629	-0.624487	-0.293901
01235														-0.965802	-9.181515	-3.361170	-0.679249	-0.726161	-0.106352	-0.175447	0.301377	-0.937225	0.712629	-0.617950	-0.332112
01236														-1.132467	-9.457341	-4.465873	-0.681314	-0.725476	-0.097452	-0.208243	0.319732	-0.924341	0.701746	-0.609472	-0.368913
01237														-1.609723	-9.505988	-5.217026	-0.681351	-0.726570	-0.088640	-0.241166	0.337177	-0.910028	0.691086	-0.598671	-0.404960
01238														-2.238674	-9.215418	-5.663351	-0.679879	-0.728828	-0.081081	-0.273023	0.354191	-0.894431	0.680605	-0.585968	-0.439794
01239														-2.773161	-9.193636	-6.201790	-0.677908	-0.731266	-0.075435	-0.303218	0.371611	-0.877476	0.669701	-0.571974	-0.473651
01240														-2.765927	-9.365670	-6.856749	-0.676247	-0.733121	-0.072277	-0.330878	0.389931	-0.859345	0.658186	-0.557215	-0.506263
01241														-2.387790	-9.858324	-7.578501	-0.675470	-0.733919	-0.071433	-0.356409	0.409752	-0.839688	0.645533	-0.541725	-0.538351
01242														-1.578175	-10.286241	-8.099122	-0.675686	-0.733649	-0.072168	-0.380313	0.430772	-0.818412	0.631515	-0.525543	-0.570083
01243														-0.513161	-10.178843	-8.140626	-0.676617	-0.732635	-0.073724	-0.403533	0.452691	-0.795130	0.615914	-0.508248	-0.601941
01244														0.555967	-9.746259	-7.952365	-0.677638	-0.731505	-0.075547	-0.426054	0.474248	-0.770432	0.599403	-0.489887	-0.633030
01245														1.440109	-9.256241	-7.813025	-0.678184	-0.730877	-0.076714	-0.448571	0.494382	-0.744561	0.582108	-0.470538	-0.663132
01246														2.245636	-8.926062	-7.579066	-0.677596	-0.731439	-0.076561	-0.471359	0.511838	-0.718222	0.564522	-0.450576	-0.691589
01247														2.911303	-8.655463	-7.693048	-0.675205	-0.733847	-0.074608	-0.495117	0.525866	-0.691610	0.546770	-0.430038	-0.718408
01248														3.459857	-8.730113	-8.082699	-0.670401	-0.738596	-0.070981	-0.519988	0.535900	-0.665149	0.529316	-0.409007	-0.743329
01249														3.856659	-9.041129	-8.425241	-0.662665	-0.745980	-0.066243	-0.546427	0.542089	-0.638402	0.512145	-0.386849	-0.766847
01250														3.757303	-9.335861	-9.005820	-0.651899	-0.755842	-0.061084	-0.574058	0.544534	-0.611507	0.495465	-0.363574	-0.788878
01251														3.377770	-9.891395	-9.644183	-0.638361	-0.767724	-0.055639	-0.603055	0.543739	-0.583672	0.478352	-0.339040	-0.810081
01252														2.885441	-10.308232	-10.045316	-0.622451	-0.781044	-0.050252	-0.633001	0.540150	-0.554569	0.460287	-0.313383	-0.830619
01253														2.318937	-10.262217	-10.022047	-0.604781	-0.795111	-0.045164	-0.663452	0.534385	-0.523702	0.440536	-0.286761	-0.850704
01254														1.752946	-9.964938	-9.760436	-0.585988	-0.809296	-0.040711	-0.693383	0.526791	-0.491642	0.419330	-0.259868	-0.869845
01255														1.235239	-9.482171	-9.385204	-0.566693	-0.823099	-0.036969	-0.722223	0.517835	-0.458519	0.396551	-0.233140	-0.887915
01256														0.946544	-9.007746	-9.107272	-0.547468	-0.836132	-0.034093	-0.749062	0.507807	-0.425485	0.373074	-0.207402	-0.904323
01257														0.852673	-8.959520	-9.212513	-0.528652	-0.848237	-0.031949	-0.773790	0.497045	-0.392676	0.348963	-0.182867	-0.919122
01258														1.000713	-8.859028	-9.264886	-0.510346	-0.859419	-0.030739	-0.796249	0.485733	-0.360625	0.324859	-0.159568	-0.932204
01259														1.115119	-8.819274	-9.320937	-0.492585	-0.869729	-0.030535	-0.816660	0.474083	-0.329107	0.300710	-0.137176	-0.943799
01260														0.927367	-8.865161	-9.406251	-0.475417	-0.879210	-0.031131	-0.835029	0.462102	-0.298645	0.276957	-0.115985	-0.953856
01261														0.708117	-9.402444	-9.904319	-0.458857	-0.887936	-0.031945	-0.851823	0.449851	-0.268389	0.252683	-0.095940	-0.962781
01262														0.551663	-9.817618	-10.208930	-0.443054	-0.895896	-0.032767	-0.867139	0.437537	-0.237975	0.227537	-0.077023	-0.970718
01263														0.224573	-9.898185	-10.212417	-0.428130	-0.903103	-0.033320	-0.881117	0.425333	-0.206697	0.200841	-0.059135	-0.977837
01264														0.149294	-9.708983	-9.600194	-0.414059	-0.909627	-0.033661	-0.893690	0.413270	-0.174716	0.172837	-0.042261	-0.984043
01265														0.270066	-8.923169	-8.585982	-0.400869	-0.915504	-0.033998	-0.904761	0.401449	-0.142291	0.143917	-0.026280	-0.989241
01266														0.733130	-7.788905	-7.151725	-0.388780	-0.920651	-0.035365	-0.914013	0.390237	-0.110883	0.115886	-0.010785	-0.993204
01267														1.251012	-7.200676	-6.130773	-0.377874	-0.925063	-0.038335	-0.921462	0.379787	-0.081663	0.090103	0.004466	-0.995922
01268														1.571556	-7.589356	-5.939230	-0.367600	-0.928998	-0.042806	-0.927575	0.369570	-0.054985	0.066900	0.019494	-0.997569
01269														1.957897	-8.593665	-6.135008	-0.356742	-0.932977	-0.047843	-0.933116	0.358329	-0.029920	0.045058	0.033969	-0.998407
01270														2.534753	-8.850170	-5.478450	-0.343936	-0.937492	-0.053065	-0.938693	0.344704	-0.005782	0.023712	0.047823	-0.998574
01271														3.249942	-8.452079	-4.554004	-0.328677	-0.942590	-0.059114	-0.944436	0.328259	0.016925	0.003452	0.061392	-0.998108
01272														3.573508	-7.780738	-3.309836	-0.310910	-0.948093	-0.066740	-0.950328	0.309032	0.037091	-0.014541	0.074957	-0.997081
01273														3.347081	-7.567332	-2.782575	-0.290951	-0.953728	-0.075831	-0.956287	0.287467	0.053638	-0.029357	0.088123	-0.995677
01274														2.529623	-8.009663	-3.048107	-0.268490	-0.959498	-0.085306	-0.962397	0.263392	0.066459	-0.041298	0.099942	-0.994136
01275														1.707194	-8.038692	-3.247791	-0.243136	-0.965411	-0.094164	-0.968621	0.236487	0.076464	-0.051551	0.109801	-0.992616
01276														1.382082	-7.407966	-3.208418	-0.215204	-0.971120	-0.103018	-0.974737	0.207144	0.083539	-0.059787	0.118394	-0.991165
01277														0.831459	-6.877380	-3.538437	-0.186506	-0.975950	-0.112857	-0.980265	0.177195	0.087647	-0.065541	0.126977	-0.989738
01278														-0.149943	-6.518708	-4.214904	-0.158559	-0.979555	-0.123817	-0.984918	0.148124	0.089420	-0.069251	0.136128	-0.988268
01279														-1.030432	-6.340577	-5.232395	-0.132306	-0.981988	-0.134890	-0.988589	0.120841	0.089939	-0.072019	0.145250	-0.986770
01280														-1.320083	-6.019335	-5.796680	-0.108422	-0.983430	-0.145294	-0.991278	0.095939	0.090350	-0.074914	0.153823	-0.985254
01281														-1.588071	-4.934319	-5.745720	-0.087402	-0.984110	-0.154557	-0.993105	0.073910	0.090992	-0.078123	0.161444	-0.983785
01282														-1.657049	-3.692958	-5.454500	-0.069423	-0.984355	-0.161945	-0.994307	0.055123	0.091188	-0.080835	0.167354	-0.982577
01283														-3.159176	-1.983095	-5.436779	-0.053999	-0.984603	-0.166254	-0.995160	0.039376	0.090032	-0.082100	0.170311	-0.981964
01284														0.210318	-2.298871	5.575323	-0.031879	-0.986106	-0.163028	-0.997221	0.020392	0.071658	-0.067338	0.164859	-0.984016
01285														3.992061	-11.556349	-0.307456	-0.004836	-0.987410	-0.158110	-0.998910	-0.002569	0.046602	-0.046421	0.158163	-0.986321
01286														0.450610	-9.086134	-8.593042	0.027320	-0.988069	-0.151567	-0.999289	-0.030938	0.021562	-0.025994	0.150870	-0.988212
01287														-3.745898	2.583684	-10.632457	0.063877	-0.988412	-0.137701	-0.997937	-0.064149	-0.002466	-0.006396	0.137575	-0.990471
01288														-8.331713	8.127015	-6.493867	0.097179	-0.987790	-0.121766	-0.995068	-0.093985	-0.031720	0.019889	0.124248	-0.992052
01289														-8.584537	-0.859243	-8.981794	0.120195	-0.987446	-0.102489	-0.991190	-0.113580	-0.068132	0.055636	0.109775	-0.992398
01290														-8.165295	-10.325197	-15.362445	0.137137	-0.987282	-0.080417	-0.986435	-0.128723	-0.101862	0.090215	0.093295	-0.991543
01291														-8.973533	-4.065572	-12.791693	0.145625	-0.987399	-0.061933	-0.981580	-0.136374	-0.133804	0.123672	0.080278	-0.989071
01292														-6.710221	-1.902062	-14.505000	0.143805	-0.988560	-0.045500	-0.976300	-0.134207	-0.169783	0.161735	0.068837	-0.984430
01293														4.288308	-5.090780	-10.941802	0.141344	-0.989576	-0.027605	-0.969183	-0.132640	-0.207582	0.201757	0.056095	-0.977828
01294														7.449762	-6.631824	-13.406182	0.141081	-0.989919	-0.012503	-0.959533	-0.133619	-0.247877	0.243708	0.046968	-0.968711
01295														3.697839	-11.660614	-13.569044	0.143101	-0.989708	-0.000262	-0.949072	-0.137151	-0.283642	0.280687	0.040838	-0.958930
01296														1.146918	-9.424662	-11.295223	0.143508	-0.989586	0.011169	-0.938958	-0.139714	-0.314386	0.312672	0.034630	-0.949230
01297														2.769130	-6.541798	-10.354360	0.143127	-0.989469	0.021565	-0.928795	-0.141813	-0.342388	0.341840	0.028976	-0.939311
01298														3.821533	-7.890435	-10.424684	0.142796	-0.989240	0.031842	-0.918291	-0.144420	-0.368626	0.369258	0.023398	-0.929032
01299														2.366199	-10.394576	-11.952539	0.143113	-0.988862	0.040872	-0.908662	-0.147649	-0.390556	0.392241	0.018755	-0.919671
01300														1.829050	-12.268629	-14.280495	0.142627	-0.988733	0.045427	-0.901254	-0.148706	-0.406973	0.409143	0.017105	-0.912310
01301														3.295719	-10.455446	-11.074499	0.141242	-0.988971	0.044572	-0.896520	-0.146875	-0.417946	0.419883	0.019072	-0.907378
01302														2.899305	-7.179153	-10.673891	0.140741	-0.989089	0.043539	-0.892601	-0.145791	-0.426624	0.428317	0.021180	-0.903380
01303														-0.374500	-7.517316	-10.700019	0.141146	-0.989125	0.041352	-0.889397	-0.145039	-0.433517	0.434801	0.024411	-0.900196
01304														-1.533173	-5.392207	-9.401176	0.140681	-0.989227	0.040485	-0.887042	-0.144100	-0.438624	0.439733	0.025795	-0.897758
01305														-0.266778	-3.836451	-8.584233	0.140572	-0.989209	0.041286	-0.884339	-0.144201	-0.444017	0.445179	0.025906	-0.895067
01306														0.580409	-3.622629	-8.291508	0.140906	-0.989106	0.042595	-0.881192	-0.144911	-0.450001	0.451271	0.025873	-0.892012
01307														0.416865	-3.709011	-8.398123	0.141344	-0.988995	0.043706	-0.877553	-0.145605	-0.456836	0.458172	0.026217	-0.888477
01308														0.192491	-3.554337	-8.193979	0.141992	-0.988844	0.045006	-0.873624	-0.146565	-0.464004	0.465424	0.026567	-0.884689
01309														0.749692	-3.461079	-8.452147	0.142693	-0.988710	0.045723	-0.869299	-0.147279	-0.471835	0.473242	0.027580	-0.880501
01310														1.076214	-6.029347	-9.700987	0.143444	-0.988566	0.046494	-0.864909	-0.148057	-0.479595	0.480995	0.028582	-0.876257
01311														0.629151	-7.689147	-8.981478	0.143901	-0.988446	0.047622	-0.861907	-0.148833	-0.484731	0.486218	0.028708	-0.873366
01312														1.008492	-5.393604	-8.922943	0.143949	-0.988421	0.047985	-0.859888	-0.148934	-0.488273	0.489766	0.029024	-0.871371
01313														0.734485	-7.264376	-9.506411	0.143947	-0.988404	0.048335	-0.858312	-0.149013	-0.491014	0.492523	0.029194	-0.869809
01314														0.179827	-6.462902	-8.696679	0.143804	-0.988396	0.048929	-0.857999	-0.149164	-0.491515	0.493110	0.028701	-0.869493
01315														0.502434	-4.262446	-8.540697	0.143596	-0.988385	0.049749	-0.857558	-0.149364	-0.492225	0.493938	0.028019	-0.869045
01316														0.292261	-4.963212	-8.514826	0.143459	-0.988360	0.050640	-0.856901	-0.149651	-0.493280	0.495116	0.027372	-0.868396
01317														0.451910	-4.840147	-8.390143	0.143332	-0.988327	0.051626	-0.856337	-0.150003	-0.494152	0.496128	0.026618	-0.867841
01318														0.804939	-4.251969	-8.255674	0.143236	-0.988303	0.052352	-0.855683	-0.150247	-0.495209	0.497282	0.026135	-0.867195
01319														0.744654	-4.224425	-8.299614	0.143099	-0.988299	0.052796	-0.854834	-0.150306	-0.496656	0.498780	0.025940	-0.866340
01320														0.724921	-4.144549	-8.202859	0.142889	-0.988322	0.052940	-0.853947	-0.150149	-0.498226	0.500357	0.025984	-0.865429
01321														0.767574	-4.098980	-8.262100	0.142555	-0.988377	0.052812	-0.852890	-0.149739	-0.500157	0.502252	0.026257	-0.864323
01322														0.757132	-4.866497	-8.434915	0.142261	-0.988443	0.052365	-0.851678	-0.149192	-0.502381	0.504387	0.026871	-0.863059
01323														0.763832	-5.247628	-8.547775	0.141985	-0.988519	0.051683	-0.850519	-0.148542	-0.504533	0.506417	0.027679	-0.861844
01324														0.505881	-5.195858	-8.521256	0.141703	-0.988606	0.050778	-0.849351	-0.147770	-0.506721	0.508451	0.028676	-0.860613
01325														0.520224	-5.367993	-8.489318	0.141431	-0.988694	0.049818	-0.848200	-0.146974	-0.508877	0.510446	0.029715	-0.859396
01326														0.501312	-5.527856	-8.571978	0.141281	-0.988772	0.048676	-0.847128	-0.146192	-0.510883	0.512263	0.030943	-0.858271
01327														0.437992	-5.728837	-8.511798	0.141164	-0.988828	0.047874	-0.846183	-0.145618	-0.512611	0.513855	0.031852	-0.857285
01328														0.602271	-5.506624	-8.465594	0.141105	-0.988871	0.047164	-0.845452	-0.145153	-0.513947	0.515073	0.032646	-0.856524
01329														0.589580	-5.337382	-8.398491	0.140968	-0.988926	0.046408	-0.844851	-0.144602	-0.515090	0.516096	0.033404	-0.855879
01330														0.564133	-5.287952	-8.454986	0.140947	-0.988972	0.045483	-0.844294	-0.144065	-0.516152	0.517012	0.034349	-0.855289
01331														0.494471	-5.477403	-8.376653	0.140905	-0.989014	0.044700	-0.843854	-0.143591	-0.517003	0.517742	0.035128	-0.854815
01332														0.406425	-5.298736	-8.363844	0.140965	-0.989037	0.043979	-0.843450	-0.143238	-0.517760	0.518383	0.035892	-0.854395
01333														0.484344	-5.222631	-8.314095	0.141011	-0.989058	0.043350	-0.843073	-0.142922	-0.518460	0.518983	0.036561	-0.854002
01334														0.441653	-5.235315	-8.373628	0.141063	-0.989076	0.042785	-0.842717	-0.142645	-0.519115	0.519547	0.037172	-0.853633
01335														0.393429	-5.246210	-8.306734	0.141119	-0.989087	0.042333	-0.842397	-0.142433	-0.519693	0.520051	0.037677	-0.853304
01336														0.417510	-5.295242	-8.316382	0.141151	-0.989106	0.041786	-0.842162	-0.142156	-0.520148	0.520422	0.038228	-0.853053
01337														0.370953	-5.322228	-8.325726	0.141183	-0.989124	0.041248	-0.841995	-0.141888	-0.520493	0.520684	0.038754	-0.852869
01338														0.217128	-5.477847	-8.410027	0.141251	-0.989132	0.040811	-0.841880	-0.141708	-0.520728	0.520852	0.039196	-0.852747
01339														0.258691	-5.276005	-8.362566	0.141289	-0.989131	0.040701	-0.841828	-0.141679	-0.520820	0.520926	0.039322	-0.852696
01340														0.414598	-5.233009	-8.392944	0.141366	-0.989124	0.040617	-0.841762	-0.141696	-0.520921	0.521010	0.039451	-0.852638
01341														0.462864	-5.302192	-8.319013	0.141382	-0.989120	0.040641	-0.841692	-0.141717	-0.521028	0.521119	0.039457	-0.852571
01342														0.516038	-5.210297	-8.284494	0.141410	-0.989120	0.040552	-0.841669	-0.141693	-0.521072	0.521149	0.039553	-0.852549
01343														0.253683	-5.203693	-8.292806	0.141485	-0.989112	0.040490	-0.841685	-0.141725	-0.521038	0.521104	0.039639	-0.852572
01344														0.304971	-5.145487	-8.282470	0.141600	-0.989091	0.040591	-0.841744	-0.141882	-0.520899	0.520976	0.039593	-0.852653
01345														0.255388	-5.200212	-8.294937	0.141726	-0.989065	0.040794	-0.841811	-0.142103	-0.520732	0.520834	0.039461	-0.852745
01346														0.222855	-5.114955	-8.341319	0.141907	-0.989023	0.041192	-0.841888	-0.142474	-0.520505	0.520660	0.039184	-0.852864
01347														0.310158	-5.263051	-8.327852	0.142152	-0.988965	0.041715	-0.841935	-0.142965	-0.520295	0.520517	0.038840	-0.852967
01348														0.312073	-5.186888	-8.363216	0.142402	-0.988899	0.042424	-0.841982	-0.143556	-0.520056	0.520373	0.038337	-0.853078
01349														0.413312	-5.355749	-8.344417	0.142662	-0.988827	0.043234	-0.842036	-0.144210	-0.519787	0.520214	0.037749	-0.853201
01350														0.445420	-5.358868	-8.312450	0.142970	-0.988745	0.044079	-0.842190	-0.144931	-0.519337	0.519881	0.037126	-0.853432
01351														0.412672	-5.233609	-8.313746	0.143351	-0.988654	0.044882	-0.842365	-0.145694	-0.518840	0.519492	0.036569	-0.853693
01352														0.607351	-5.049513	-8.322772	0.143729	-0.988575	0.045405	-0.842560	-0.146308	-0.518351	0.519072	0.036245	-0.853962
01353														0.610336	-5.188283	-8.338703	0.144115	-0.988515	0.045478	-0.842747	-0.146692	-0.517937	0.518660	0.036316	-0.854209
01354														0.542170	-5.271286	-8.330632	0.144406	-0.988478	0.045367	-0.843018	-0.146903	-0.517436	0.518138	0.036476	-0.854519
01355														0.368818	-5.358902	-8.356612	0.144768	-0.988435	0.045150	-0.843329	-0.147125	-0.516866	0.517531	0.036749	-0.854875
01356														0.346973	-5.220095	-8.353397	0.145137	-0.988382	0.045117	-0.843719	-0.147454	-0.516135	0.516792	0.036844	-0.855318
01357														0.391808	-4.830823	-8.272828	0.145497	-0.988329	0.045129	-0.844093	-0.147799	-0.515425	0.516079	0.036900	-0.855746
01358														0.145257	-5.056895	-8.363397	0.145869	-0.988268	0.045266	-0.844352	-0.148210	-0.514882	0.515551	0.036885	-0.856065
01359														0.310212	-5.134151	-8.358729	0.146308	-0.988185	0.045649	-0.844616	-0.148808	-0.514277	0.514993	0.036687	-0.856409
01360														0.483055	-4.925294	-8.349805	0.146785	-0.988097	0.046018	-0.844874	-0.149432	-0.513671	0.514433	0.036520	-0.856752
