// Start Time: Unknown
// Update Rate: 100.0Hz
// Filter Profile: human (46.1)
// Option Flags: AHS Disabled ICC Disabled 
// Firmware Version: 4.0.2
PacketCounter	SampleTimeFine	Year	Month	Day	Second	UTC_Nano	UTC_Year	UTC_Month	UTC_Day	UTC_Hour	UTC_Minute	UTC_Second	UTC_Valid	Acc_X	Acc_Y	Acc_Z	Mat[1][1]	Mat[2][1]	Mat[3][1]	Mat[1][2]	Mat[2][2]	Mat[3][2]	Mat[1][3]	Mat[2][3]	Mat[3][3]
00472														0.102257	4.888482	-8.503300	-0.938789	0.344369	0.009194	0.303103	0.813023	0.497114	0.163716	0.469472	-0.867636
00473														0.105596	4.849178	-8.486458	-0.938790	0.344369	0.009161	0.303100	0.813064	0.497048	0.163719	0.469400	-0.867675
00474														0.117989	4.915157	-8.547919	-0.938785	0.344381	0.009175	0.303123	0.813073	0.497019	0.163704	0.469375	-0.867691
00475														0.101468	4.885771	-8.504867	-0.938774	0.344410	0.009185	0.303168	0.813104	0.496942	0.163683	0.469301	-0.867735
00476														0.118576	4.878219	-8.489519	-0.938775	0.344408	0.009171	0.303165	0.813124	0.496911	0.163682	0.469268	-0.867753
00477														0.117675	4.894928	-8.519739	-0.938772	0.344418	0.009129	0.303165	0.813161	0.496850	0.163701	0.469197	-0.867788
00478														0.151857	4.880698	-8.488547	-0.938769	0.344428	0.009117	0.303179	0.813192	0.496791	0.163695	0.469136	-0.867822
00479														0.102737	4.878817	-8.549062	-0.938761	0.344449	0.009066	0.303184	0.813224	0.496736	0.163728	0.469066	-0.867854
00480														0.102679	4.860327	-8.519874	-0.938758	0.344458	0.009053	0.303197	0.813255	0.496677	0.163722	0.469005	-0.867888
00481														0.133126	4.884429	-8.506112	-0.938758	0.344458	0.009020	0.303194	0.813296	0.496611	0.163726	0.468933	-0.867926
00482														0.101742	4.858408	-8.520979	-0.938756	0.344465	0.008984	0.303190	0.813322	0.496571	0.163745	0.468883	-0.867950
00483														0.097718	4.878289	-8.509204	-0.938750	0.344484	0.008919	0.303190	0.813365	0.496501	0.163782	0.468794	-0.867990
00484														0.097597	4.859881	-8.479973	-0.938751	0.344482	0.008904	0.303187	0.813385	0.496470	0.163782	0.468761	-0.868008
00485														0.110349	4.908300	-8.511755	-0.938742	0.344507	0.008890	0.303214	0.813411	0.496411	0.163786	0.468697	-0.868042
00486														0.082904	4.843873	-8.509199	-0.938741	0.344509	0.008863	0.303214	0.813448	0.496351	0.163788	0.468632	-0.868077
00487														0.098931	4.871392	-8.553340	-0.938734	0.344529	0.008848	0.303232	0.813468	0.496306	0.163794	0.468583	-0.868102
00488														0.109720	4.888116	-8.483557	-0.938726	0.344551	0.008838	0.303254	0.813483	0.496268	0.163800	0.468540	-0.868125
00489														0.098794	4.852356	-8.524462	-0.938734	0.344529	0.008826	0.303235	0.813508	0.496239	0.163789	0.468513	-0.868141
00490														0.091928	4.893186	-8.500326	-0.938725	0.344554	0.008839	0.303274	0.813529	0.496182	0.163771	0.468459	-0.868174
00491														0.132502	4.854885	-8.523474	-0.938721	0.344565	0.008797	0.303275	0.813565	0.496121	0.163789	0.468388	-0.868209
00492														0.098027	4.849645	-8.526013	-0.938718	0.344573	0.008819	0.303301	0.813585	0.496072	0.163758	0.468347	-0.868236
00493														0.111814	4.863125	-8.498266	-0.938710	0.344597	0.008794	0.303315	0.813595	0.496047	0.163782	0.468312	-0.868251
00494														0.111684	4.862447	-8.498656	-0.938706	0.344607	0.008829	0.303346	0.813604	0.496013	0.163747	0.468289	-0.868270
00495														0.114415	4.858469	-8.541081	-0.938706	0.344607	0.008798	0.303335	0.813619	0.495996	0.163765	0.468263	-0.868280
00496														0.108027	4.882295	-8.486930	-0.938704	0.344610	0.008834	0.303350	0.813596	0.496024	0.163748	0.468300	-0.868264
00497														0.093995	4.867524	-8.515409	-0.938708	0.344601	0.008823	0.303347	0.813632	0.495967	0.163732	0.468245	-0.868296
00498														0.127785	4.871214	-8.513769	-0.938706	0.344608	0.008787	0.303334	0.813632	0.495975	0.163768	0.468240	-0.868292
00499														0.093148	4.866527	-8.515989	-0.938705	0.344609	0.008769	0.303328	0.813636	0.495972	0.163782	0.468232	-0.868294
00500														0.093023	4.866060	-8.516256	-0.938713	0.344588	0.008796	0.303325	0.813645	0.495960	0.163745	0.468232	-0.868301
00501														0.106815	4.879705	-8.488435	-0.938711	0.344594	0.008767	0.303322	0.813665	0.495928	0.163761	0.468192	-0.868319
00502														0.109972	4.858192	-8.501111	-0.938703	0.344615	0.008791	0.303357	0.813670	0.495900	0.163741	0.468169	-0.868335
00503														0.092547	4.864196	-8.517326	-0.938707	0.344605	0.008783	0.303346	0.813679	0.495891	0.163740	0.468161	-0.868340
00504														0.092612	4.863575	-8.517680	-0.938704	0.344612	0.008839	0.303386	0.813687	0.495853	0.163685	0.468140	-0.868362
00505														0.109596	4.873782	-8.531961	-0.938689	0.344652	0.008842	0.303426	0.813687	0.495830	0.163694	0.468113	-0.868375
00506														0.106689	4.876444	-8.490310	-0.938692	0.344643	0.008870	0.303439	0.813706	0.495789	0.163653	0.468085	-0.868398
00507														0.109608	4.872347	-8.532780	-0.938681	0.344672	0.008882	0.303475	0.813710	0.495760	0.163647	0.468056	-0.868414
00508														0.092599	4.860599	-8.519379	-0.938682	0.344671	0.008874	0.303483	0.813747	0.495696	0.163631	0.467994	-0.868451
00509														0.109294	4.870613	-8.533774	-0.938678	0.344682	0.008882	0.303502	0.813761	0.495660	0.163618	0.467961	-0.868471
00510														0.109681	4.852378	-8.504435	-0.938670	0.344701	0.008892	0.303532	0.813776	0.495617	0.163604	0.467920	-0.868496
00511														0.106132	4.872398	-8.492640	-0.938663	0.344720	0.008877	0.303550	0.813797	0.495572	0.163610	0.467870	-0.868521
00512														0.126146	4.861530	-8.519327	-0.938661	0.344727	0.008883	0.303571	0.813828	0.495509	0.163586	0.467811	-0.868558
00513														0.070919	4.883682	-8.525484	-0.938640	0.344785	0.008842	0.303610	0.813839	0.495467	0.163634	0.467749	-0.868582
00514														0.108249	4.866243	-8.536281	-0.938638	0.344789	0.008870	0.303639	0.813870	0.495398	0.163589	0.467693	-0.868621
00515														0.125482	4.858813	-8.520887	-0.938634	0.344802	0.008854	0.303649	0.813885	0.495367	0.163597	0.467657	-0.868638
00516														0.074727	4.825330	-8.479657	-0.938637	0.344792	0.008868	0.303657	0.813916	0.495312	0.163562	0.467611	-0.868670
00517														0.107853	4.863638	-8.537770	-0.938634	0.344801	0.008862	0.303672	0.813941	0.495262	0.163553	0.467561	-0.868699
00518														0.104859	4.866244	-8.496183	-0.938633	0.344803	0.008880	0.303689	0.813956	0.495227	0.163528	0.467533	-0.868719
00519														0.104710	4.865465	-8.496631	-0.938626	0.344823	0.008865	0.303707	0.813976	0.495182	0.163534	0.467483	-0.868744
00520														0.107862	4.843762	-8.509368	-0.938626	0.344824	0.008869	0.303719	0.814002	0.495132	0.163514	0.467437	-0.868772
00521														0.103741	4.881179	-8.527420	-0.938621	0.344836	0.008840	0.303725	0.814028	0.495086	0.163527	0.467384	-0.868799
00522														0.072749	4.855026	-8.542204	-0.938620	0.344839	0.008868	0.303754	0.814058	0.495018	0.163483	0.467327	-0.868838
00523														0.124078	4.851778	-8.524914	-0.938607	0.344874	0.008832	0.303780	0.814090	0.494950	0.163506	0.467246	-0.868877
00524														0.103122	4.878270	-8.529092	-0.938606	0.344877	0.008849	0.303796	0.814105	0.494915	0.163481	0.467218	-0.868896
00525														0.088985	4.863059	-8.557737	-0.938604	0.344884	0.008830	0.303806	0.814141	0.494850	0.163477	0.467150	-0.868934
00526														0.106664	4.838133	-8.512585	-0.938592	0.344917	0.008853	0.303856	0.814157	0.494793	0.163455	0.467099	-0.868966
00527														0.154234	4.873270	-8.512819	-0.938582	0.344942	0.008839	0.303883	0.814182	0.494735	0.163458	0.467035	-0.868999
00528														0.071763	4.849339	-8.545442	-0.938572	0.344970	0.008861	0.303925	0.814193	0.494692	0.163439	0.466997	-0.869023
00529														0.123104	4.846347	-8.528017	-0.938568	0.344982	0.008832	0.303930	0.814218	0.494646	0.163453	0.466944	-0.869049
00530														0.119552	4.866159	-8.516394	-0.938571	0.344974	0.008855	0.303951	0.814265	0.494557	0.163399	0.466868	-0.869100
00531														0.088510	4.839776	-8.531269	-0.938558	0.345009	0.008819	0.303977	0.814296	0.494489	0.163422	0.466788	-0.869139
00532														0.085134	4.842165	-8.489849	-0.938555	0.345017	0.008786	0.303983	0.814339	0.494415	0.163426	0.466706	-0.869182
00533														0.091491	4.799458	-8.514839	-0.938548	0.345036	0.008772	0.304001	0.814360	0.494370	0.163432	0.466657	-0.869207
00534														0.104831	4.830347	-8.517028	-0.938545	0.345045	0.008788	0.304026	0.814380	0.494321	0.163406	0.466614	-0.869235
00535														0.100821	4.867882	-8.535053	-0.938542	0.345052	0.008771	0.304027	0.814390	0.494304	0.163418	0.466592	-0.869245
00536														0.087317	4.835574	-8.533664	-0.938538	0.345064	0.008814	0.304061	0.814389	0.494285	0.163382	0.466585	-0.869255
00537														0.101389	4.849359	-8.505874	-0.938549	0.345033	0.008823	0.304042	0.814408	0.494265	0.163352	0.466575	-0.869266
00538														0.117964	4.859744	-8.520078	-0.938538	0.345064	0.008787	0.304052	0.814404	0.494265	0.163397	0.466559	-0.869267
00539														0.083594	4.854791	-8.522399	-0.938535	0.345071	0.008818	0.304081	0.814418	0.494225	0.163362	0.466529	-0.869289
00540														0.104330	4.826824	-8.519031	-0.938535	0.345072	0.008822	0.304083	0.814418	0.494224	0.163358	0.466529	-0.869290
00541														0.100193	4.864510	-8.536983	-0.938533	0.345078	0.008792	0.304080	0.814438	0.494192	0.163374	0.466489	-0.869308
00542														0.103793	4.825580	-8.519743	-0.938528	0.345090	0.008798	0.304099	0.814449	0.494162	0.163365	0.466461	-0.869325
00543														0.100284	4.845842	-8.507891	-0.938523	0.345105	0.008795	0.304114	0.814453	0.494147	0.163369	0.466443	-0.869334
00544														0.079501	4.872604	-8.511951	-0.938515	0.345126	0.008814	0.304146	0.814458	0.494118	0.163354	0.466418	-0.869350
00545														0.100155	4.844628	-8.508584	-0.938510	0.345141	0.008812	0.304161	0.814463	0.494102	0.163358	0.466400	-0.869359
00546														0.103039	4.840639	-8.550890	-0.938503	0.345157	0.008843	0.304190	0.814452	0.494102	0.163341	0.466407	-0.869359
00547														0.100201	4.843907	-8.508994	-0.938502	0.345161	0.008851	0.304192	0.814434	0.494130	0.163346	0.466434	-0.869343
00548														0.106627	4.819363	-8.563308	-0.938501	0.345162	0.008904	0.304212	0.814412	0.494153	0.163311	0.466472	-0.869329
00549														0.100977	4.826240	-8.479324	-0.938506	0.345148	0.008908	0.304198	0.814405	0.494174	0.163308	0.466495	-0.869317
00550														0.065913	4.856430	-8.541078	-0.938515	0.345123	0.008954	0.304192	0.814389	0.494205	0.163269	0.466542	-0.869300
00551														0.101180	4.826036	-8.479438	-0.938522	0.345102	0.008957	0.304170	0.814376	0.494239	0.163269	0.466579	-0.869280
00552														0.104104	4.822505	-8.521480	-0.938536	0.345065	0.008989	0.304144	0.814359	0.494283	0.163240	0.466636	-0.869255
00553														0.083463	4.850073	-8.525086	-0.938547	0.345034	0.009003	0.304109	0.814325	0.494360	0.163240	0.466718	-0.869210
00554														0.083389	4.850328	-8.524941	-0.938556	0.345011	0.009003	0.304078	0.814304	0.494415	0.163248	0.466773	-0.869179
00555														0.100670	4.844109	-8.508874	-0.938580	0.344944	0.009020	0.304014	0.814279	0.494494	0.163228	0.466864	-0.869134
00556														0.117591	4.855393	-8.522563	-0.938587	0.344923	0.009045	0.303992	0.814237	0.494578	0.163227	0.466954	-0.869086
00557														0.083388	4.851399	-8.524332	-0.938601	0.344885	0.009046	0.303944	0.814208	0.494655	0.163234	0.467033	-0.869043
00558														0.100684	4.845350	-8.508167	-0.938618	0.344839	0.009065	0.303896	0.814170	0.494746	0.163228	0.467132	-0.868990
00559														0.117947	4.839407	-8.491942	-0.938643	0.344770	0.009059	0.303815	0.814141	0.494844	0.163232	0.467234	-0.868935
00560														0.083618	4.835539	-8.493640	-0.938662	0.344719	0.009064	0.303756	0.814109	0.494934	0.163234	0.467329	-0.868883
00561														0.117237	4.857911	-8.521133	-0.938687	0.344651	0.009071	0.303679	0.814069	0.495047	0.163234	0.467448	-0.868819
00562														0.082287	4.871703	-8.552503	-0.938715	0.344575	0.009036	0.303572	0.814026	0.495183	0.163272	0.467578	-0.868742
00563														0.085943	4.834543	-8.534262	-0.938753	0.344472	0.009048	0.303458	0.813969	0.495346	0.163268	0.467753	-0.868649
00564														0.116750	4.860852	-8.519463	-0.938767	0.344434	0.009070	0.303411	0.813910	0.495472	0.163275	0.467884	-0.868577
00565														0.082203	4.874810	-8.550733	-0.938792	0.344363	0.009103	0.303335	0.813843	0.495628	0.163268	0.468053	-0.868487
00566														0.079446	4.879330	-8.508097	-0.938813	0.344307	0.009132	0.303276	0.813784	0.495762	0.163263	0.468197	-0.868410
00567														0.096418	4.891227	-8.521432	-0.938832	0.344253	0.009156	0.303212	0.813717	0.495910	0.163268	0.468353	-0.868325
00568														0.100074	4.871410	-8.533048	-0.938855	0.344189	0.009208	0.303153	0.813651	0.496054	0.163244	0.468514	-0.868243
00569														0.103788	4.851433	-8.544762	-0.938874	0.344137	0.009242	0.303103	0.813600	0.496168	0.163230	0.468641	-0.868177
00570														0.094117	4.897367	-8.477845	-0.938895	0.344079	0.009259	0.303038	0.813552	0.496288	0.163230	0.468768	-0.868109
00571														0.117291	4.884704	-8.545582	-0.938907	0.344046	0.009262	0.302990	0.813502	0.496398	0.163249	0.468878	-0.868045
00572														0.114329	4.888910	-8.503110	-0.938941	0.343954	0.009281	0.302897	0.813463	0.496519	0.163230	0.469014	-0.867976
00573														0.100893	4.857887	-8.501012	-0.938953	0.343921	0.009285	0.302849	0.813413	0.496630	0.163249	0.469124	-0.867913
00574														0.097011	4.896748	-8.518254	-0.938966	0.343885	0.009316	0.302815	0.813370	0.496722	0.163238	0.469226	-0.867859
00575														0.080297	4.886308	-8.504084	-0.938983	0.343837	0.009338	0.302768	0.813335	0.496808	0.163226	0.469322	-0.867810
00576														0.100737	4.876899	-8.529905	-0.938989	0.343818	0.009374	0.302750	0.813281	0.496907	0.163222	0.469428	-0.867753
00577														0.114708	4.891540	-8.501592	-0.939010	0.343763	0.009381	0.302698	0.813278	0.496943	0.163201	0.469474	-0.867732
00578														0.100928	4.877182	-8.529740	-0.939020	0.343732	0.009424	0.302684	0.813256	0.496988	0.163167	0.469534	-0.867706
00579														0.101141	4.877091	-8.529790	-0.939026	0.343715	0.009451	0.302678	0.813249	0.497004	0.163142	0.469560	-0.867697
00580														0.097982	4.897785	-8.517647	-0.939031	0.343700	0.009508	0.302686	0.813226	0.497035	0.163099	0.469610	-0.867678
00581														0.132327	4.902172	-8.515638	-0.939039	0.343680	0.009511	0.302663	0.813214	0.497070	0.163098	0.469646	-0.867658
00582														0.081365	4.886614	-8.503898	-0.939039	0.343679	0.009547	0.302678	0.813203	0.497078	0.163072	0.469666	-0.867653
00583														0.115017	4.908179	-8.531837	-0.939041	0.343674	0.009529	0.302663	0.813202	0.497090	0.163088	0.469671	-0.867647
00584														0.118804	4.869519	-8.514483	-0.939036	0.343687	0.009543	0.302684	0.813203	0.497075	0.163078	0.469659	-0.867655
00585														0.084578	4.864625	-8.516779	-0.939026	0.343714	0.009545	0.302707	0.813192	0.497079	0.163092	0.469659	-0.867653
00586														0.115047	4.889547	-8.502734	-0.939031	0.343700	0.009516	0.302682	0.813203	0.497076	0.163107	0.469650	-0.867655
00587														0.118346	4.868267	-8.515206	-0.939042	0.343671	0.009539	0.302669	0.813211	0.497071	0.163072	0.469658	-0.867657
00588														0.114902	4.888730	-8.503206	-0.939035	0.343690	0.009543	0.302687	0.813201	0.497076	0.163080	0.469660	-0.867655
00589														0.101388	4.856576	-8.501755	-0.939031	0.343699	0.009540	0.302693	0.813200	0.497074	0.163086	0.469655	-0.867656
00590														0.118064	4.867066	-8.515896	-0.939038	0.343681	0.009534	0.302677	0.813212	0.497065	0.163078	0.469649	-0.867661
00591														0.080270	4.882947	-8.506014	-0.939032	0.343696	0.009532	0.302691	0.813216	0.497049	0.163083	0.469631	-0.867670
00592														0.097060	4.893505	-8.520117	-0.939025	0.343717	0.009549	0.302714	0.813195	0.497069	0.163086	0.469651	-0.867658
00593														0.111432	4.890117	-8.462366	-0.939036	0.343686	0.009559	0.302695	0.813214	0.497049	0.163056	0.469641	-0.867670
00594														0.099993	4.888982	-8.562763	-0.939022	0.343724	0.009565	0.302738	0.813221	0.497012	0.163057	0.469601	-0.867691
00595														0.096984	4.891873	-8.521055	-0.939016	0.343741	0.009576	0.302757	0.813214	0.497012	0.163056	0.469601	-0.867691
00596														0.093458	4.912189	-8.509154	-0.939011	0.343755	0.009576	0.302776	0.813226	0.496982	0.163052	0.469571	-0.867708
00597														0.114164	4.884168	-8.505837	-0.939007	0.343765	0.009584	0.302795	0.813240	0.496947	0.163039	0.469538	-0.867728
00598														0.080023	4.878899	-8.508339	-0.939000	0.343783	0.009608	0.302830	0.813256	0.496899	0.163011	0.469497	-0.867755
00599														0.114164	4.882567	-8.506756	-0.938999	0.343785	0.009602	0.302836	0.813276	0.496862	0.163005	0.469461	-0.867776
00600														0.083321	4.856554	-8.521396	-0.938988	0.343817	0.009606	0.302870	0.813278	0.496839	0.163009	0.469436	-0.867789
00601														0.134799	4.853705	-8.503912	-0.938990	0.343810	0.009620	0.302885	0.813318	0.496764	0.162968	0.469370	-0.867832
00602														0.100082	4.865695	-8.536308	-0.938985	0.343824	0.009620	0.302902	0.813330	0.496734	0.162965	0.469340	-0.867849
00603														0.113777	4.879526	-8.508506	-0.938976	0.343850	0.009608	0.302921	0.813329	0.496724	0.162984	0.469322	-0.867855
00604														0.082815	4.853665	-8.523047	-0.938976	0.343848	0.009593	0.302916	0.813341	0.496707	0.162989	0.469302	-0.867865
00605														0.109949	4.899267	-8.496959	-0.938978	0.343842	0.009609	0.302923	0.813355	0.496680	0.162964	0.469283	-0.867880
00606														0.099983	4.846089	-8.507754	-0.938978	0.343842	0.009607	0.302923	0.813356	0.496678	0.162965	0.469281	-0.867881
00607														0.095814	4.883899	-8.525640	-0.938978	0.343843	0.009590	0.302916	0.813360	0.496676	0.162978	0.469272	-0.867883
00608														0.096002	4.866093	-8.496059	-0.938988	0.343817	0.009569	0.302885	0.813378	0.496666	0.162979	0.469261	-0.867889
00609														0.092322	4.886548	-8.484106	-0.938978	0.343845	0.009570	0.302909	0.813366	0.496671	0.162993	0.469261	-0.867886
00610														0.112370	4.876216	-8.510422	-0.938983	0.343831	0.009540	0.302884	0.813378	0.496667	0.163010	0.469251	-0.867889
00611														0.077984	4.871317	-8.512701	-0.938977	0.343848	0.009551	0.302904	0.813371	0.496666	0.163009	0.469251	-0.867889
00612														0.091789	4.885360	-8.484795	-0.938988	0.343816	0.009551	0.302876	0.813381	0.496666	0.162993	0.469256	-0.867889
00613														0.095058	4.864157	-8.497178	-0.938990	0.343811	0.009533	0.302861	0.813380	0.496677	0.163009	0.469262	-0.867883
00614														0.115322	4.853985	-8.523396	-0.938993	0.343803	0.009565	0.302865	0.813365	0.496699	0.162987	0.469294	-0.867870
00615														0.095036	4.863714	-8.497432	-0.938992	0.343806	0.009561	0.302863	0.813358	0.496711	0.162996	0.469304	-0.867863
00616														0.111809	4.874310	-8.511521	-0.939001	0.343780	0.009576	0.302848	0.813364	0.496712	0.162971	0.469314	-0.867862
00617														0.111763	4.874086	-8.511650	-0.938996	0.343795	0.009576	0.302855	0.813341	0.496745	0.162990	0.469341	-0.867844
00618														0.090814	4.901278	-8.515472	-0.939001	0.343782	0.009571	0.302836	0.813332	0.496771	0.162996	0.469367	-0.867829
00619														0.091189	4.883840	-8.485677	-0.939008	0.343761	0.009574	0.302813	0.813320	0.496805	0.162996	0.469403	-0.867809
00620														0.115429	4.835525	-8.494187	-0.939007	0.343765	0.009584	0.302819	0.813310	0.496818	0.162994	0.469418	-0.867802
00621														0.073734	4.889848	-8.501863	-0.939019	0.343732	0.009583	0.302787	0.813313	0.496832	0.162983	0.469437	-0.867794
00622														0.077144	4.868721	-8.514194	-0.939018	0.343733	0.009592	0.302790	0.813304	0.496845	0.162981	0.469451	-0.867786
00623														0.090958	4.882879	-8.486232	-0.939021	0.343726	0.009597	0.302784	0.813302	0.496852	0.162975	0.469460	-0.867782
00624														0.097852	4.840884	-8.510742	-0.939029	0.343703	0.009601	0.302763	0.813298	0.496872	0.162968	0.469484	-0.867771
00625														0.093776	4.878964	-8.528488	-0.939024	0.343718	0.009600	0.302769	0.813275	0.496904	0.162987	0.469512	-0.867752
00626														0.090262	4.899778	-8.516340	-0.939031	0.343698	0.009617	0.302753	0.813260	0.496940	0.162976	0.469553	-0.867732
00627														0.107464	4.893408	-8.500366	-0.939040	0.343674	0.009596	0.302713	0.813242	0.496993	0.163000	0.469601	-0.867702
00628														0.110738	4.872501	-8.512571	-0.939034	0.343689	0.009596	0.302722	0.813227	0.497012	0.163014	0.469616	-0.867691
00629														0.076543	4.867863	-8.514690	-0.939039	0.343677	0.009613	0.302713	0.813209	0.497047	0.163006	0.469656	-0.867670
00630														0.124613	4.886795	-8.484534	-0.939046	0.343657	0.009629	0.302697	0.813193	0.497082	0.162996	0.469698	-0.867650
00631														0.093229	4.878573	-8.528718	-0.939038	0.343680	0.009593	0.302699	0.813188	0.497091	0.163039	0.469691	-0.867646
00632														0.090043	4.881861	-8.486828	-0.939043	0.343665	0.009611	0.302690	0.813178	0.497112	0.163025	0.469718	-0.867633
00633														0.123634	4.903530	-8.514742	-0.939051	0.343644	0.009601	0.302663	0.813176	0.497131	0.163029	0.469737	-0.867622
00634														0.092897	4.877745	-8.529195	-0.939049	0.343649	0.009621	0.302680	0.813183	0.497111	0.163008	0.469723	-0.867634
00635														0.103654	4.895244	-8.459324	-0.939049	0.343650	0.009603	0.302674	0.813187	0.497108	0.163022	0.469715	-0.867636
00636														0.106503	4.891231	-8.501632	-0.939043	0.343665	0.009614	0.302694	0.813188	0.497093	0.163015	0.469702	-0.867644
00637														0.092615	4.876163	-8.530103	-0.939048	0.343651	0.009616	0.302688	0.813207	0.497065	0.162997	0.469678	-0.867660
00638														0.105886	4.907261	-8.532239	-0.939048	0.343652	0.009622	0.302699	0.813225	0.497029	0.162980	0.469647	-0.867680
00639														0.109667	4.868343	-8.514964	-0.939046	0.343658	0.009593	0.302697	0.813245	0.496998	0.162996	0.469607	-0.867699
00640														0.088570	4.894922	-8.519150	-0.939041	0.343672	0.009589	0.302713	0.813258	0.496968	0.162996	0.469576	-0.867716
00641														0.088790	4.876878	-8.489705	-0.939046	0.343660	0.009555	0.302693	0.813288	0.496929	0.163004	0.469532	-0.867738
00642														0.104824	4.904398	-8.533898	-0.939040	0.343675	0.009552	0.302711	0.813300	0.496900	0.163003	0.469500	-0.867755
00643														0.074470	4.860983	-8.518638	-0.939035	0.343689	0.009537	0.302721	0.813315	0.496869	0.163012	0.469464	-0.867773
00644														0.088162	4.874690	-8.490968	-0.939033	0.343695	0.009543	0.302739	0.813338	0.496819	0.162992	0.469419	-0.867802
00645														0.138947	4.889296	-8.503328	-0.939029	0.343707	0.009515	0.302745	0.813364	0.496774	0.163006	0.469365	-0.867828
00646														0.091245	4.852101	-8.504109	-0.939026	0.343715	0.009522	0.302764	0.813387	0.496725	0.162986	0.469320	-0.867856
00647														0.104430	4.883054	-8.506356	-0.939019	0.343734	0.009508	0.302782	0.813408	0.496680	0.162992	0.469271	-0.867882
00648														0.121554	4.875888	-8.490851	-0.939021	0.343729	0.009499	0.302781	0.813431	0.496643	0.162984	0.469235	-0.867903
00649														0.086584	4.887990	-8.523150	-0.939021	0.343729	0.009469	0.302770	0.813446	0.496625	0.163002	0.469209	-0.867913
00650														0.120679	4.891902	-8.521470	-0.939026	0.343714	0.009506	0.302780	0.813461	0.496594	0.162953	0.469193	-0.867931
00651														0.086922	4.869322	-8.494060	-0.939018	0.343737	0.009469	0.302790	0.813482	0.496554	0.162981	0.469140	-0.867954
00652														0.086655	4.868700	-8.494420	-0.939022	0.343727	0.009472	0.302785	0.813488	0.496547	0.162971	0.469136	-0.867958
00653														0.124163	4.851854	-8.504815	-0.939019	0.343735	0.009456	0.302787	0.813497	0.496530	0.162982	0.469114	-0.867968
00654														0.109651	4.854114	-8.563096	-0.939023	0.343724	0.009459	0.302780	0.813505	0.496522	0.162971	0.469110	-0.867972
00655														0.085761	4.884439	-8.525194	-0.939022	0.343728	0.009466	0.302791	0.813514	0.496501	0.162961	0.469091	-0.867985
00656														0.103055	4.877473	-8.509575	-0.939023	0.343725	0.009471	0.302794	0.813525	0.496480	0.162948	0.469073	-0.867997
00657														0.102747	4.876809	-8.509959	-0.939011	0.343758	0.009424	0.302808	0.813542	0.496445	0.162990	0.469021	-0.868017
00658														0.122785	4.866248	-8.536360	-0.939028	0.343712	0.009431	0.302772	0.813558	0.496439	0.162960	0.469025	-0.868020
00659														0.085242	4.864681	-8.496737	-0.939026	0.343720	0.009365	0.302756	0.813590	0.496397	0.163002	0.468964	-0.868045
00660														0.101688	4.874928	-8.511049	-0.939019	0.343736	0.009375	0.302778	0.813591	0.496382	0.162997	0.468951	-0.868054
00661														0.104983	4.853317	-8.523596	-0.939022	0.343730	0.009342	0.302767	0.813627	0.496329	0.163003	0.468893	-0.868084
00662														0.087291	4.858871	-8.540021	-0.939020	0.343737	0.009324	0.302770	0.813645	0.496299	0.163010	0.468857	-0.868102
00663														0.118108	4.866332	-8.496380	-0.939025	0.343725	0.009289	0.302751	0.813676	0.496260	0.163018	0.468813	-0.868124
00664														0.083179	4.878279	-8.528746	-0.939025	0.343725	0.009294	0.302759	0.813694	0.496225	0.163002	0.468781	-0.868144
00665														0.066129	4.866849	-8.515112	-0.939029	0.343712	0.009262	0.302732	0.813698	0.496235	0.163026	0.468783	-0.868139
00666														0.096478	4.891727	-8.501291	-0.939028	0.343715	0.009254	0.302740	0.813726	0.496184	0.163016	0.468733	-0.868168
00667														0.120246	4.860206	-8.539838	-0.939022	0.343731	0.009264	0.302759	0.813719	0.496184	0.163015	0.468732	-0.868168
00668														0.082989	4.858909	-8.500061	-0.939031	0.343708	0.009252	0.302732	0.813726	0.496189	0.163015	0.468738	-0.868165
00669														0.099501	4.869372	-8.514255	-0.939031	0.343708	0.009222	0.302721	0.813741	0.496171	0.163034	0.468712	-0.868176
00670														0.085224	4.854273	-8.542656	-0.939031	0.343710	0.009179	0.302705	0.813754	0.496159	0.163065	0.468687	-0.868183
00671														0.102754	4.830261	-8.497029	-0.939037	0.343694	0.009170	0.302687	0.813758	0.496164	0.163066	0.468692	-0.868180
00672														0.098536	4.867902	-8.515107	-0.939032	0.343707	0.009165	0.302701	0.813771	0.496134	0.163066	0.468660	-0.868197
00673														0.081474	4.856465	-8.501472	-0.939028	0.343718	0.009139	0.302698	0.813770	0.496137	0.163094	0.468653	-0.868196
00674														0.098031	4.866993	-8.515632	-0.939029	0.343718	0.009132	0.302695	0.813773	0.496135	0.163099	0.468649	-0.868198
00675														0.080997	4.855802	-8.501855	-0.939033	0.343707	0.009113	0.302672	0.813766	0.496160	0.163118	0.468668	-0.868183
00676														0.115021	4.860126	-8.499974	-0.939043	0.343678	0.009123	0.302651	0.813773	0.496160	0.163095	0.468677	-0.868183
00677														0.097496	4.866151	-8.516120	-0.939041	0.343684	0.009096	0.302641	0.813767	0.496177	0.163126	0.468683	-0.868174
00678														0.060082	4.864904	-8.476315	-0.939041	0.343685	0.009089	0.302639	0.813769	0.496175	0.163132	0.468679	-0.868175
00679														0.097541	4.848080	-8.486690	-0.939045	0.343674	0.009068	0.302624	0.813789	0.496151	0.163135	0.468653	-0.868189
00680														0.110580	4.879522	-8.488737	-0.939049	0.343663	0.009059	0.302605	0.813780	0.496177	0.163146	0.468676	-0.868174
00681														0.079588	4.853593	-8.503130	-0.939038	0.343696	0.009012	0.302619	0.813796	0.496143	0.163188	0.468624	-0.868194
00682														0.095905	4.863929	-8.517407	-0.939043	0.343681	0.008978	0.302590	0.813810	0.496138	0.163207	0.468612	-0.868197
00683														0.078196	4.869959	-8.533546	-0.939048	0.343670	0.008959	0.302567	0.813803	0.496163	0.163226	0.468631	-0.868183
00684														0.091727	4.884196	-8.505672	-0.939048	0.343669	0.008938	0.302560	0.813816	0.496146	0.163236	0.468610	-0.868193
00685														0.094963	4.862772	-8.518078	-0.939055	0.343652	0.008916	0.302536	0.813830	0.496137	0.163242	0.468597	-0.868199
00686														0.094767	4.862368	-8.518311	-0.939060	0.343637	0.008917	0.302522	0.813832	0.496143	0.163236	0.468606	-0.868195
00687														0.094162	4.879200	-8.548454	-0.939061	0.343635	0.008923	0.302525	0.813836	0.496135	0.163228	0.468601	-0.868199
00688														0.094639	4.861341	-8.518899	-0.939067	0.343620	0.008922	0.302519	0.813863	0.496094	0.163206	0.468564	-0.868223
00689														0.074293	4.870705	-8.493212	-0.939064	0.343625	0.008941	0.302534	0.813861	0.496087	0.163191	0.468563	-0.868227
00690														0.097612	4.856458	-8.561600	-0.939059	0.343641	0.008936	0.302551	0.813874	0.496057	0.163193	0.468530	-0.868244
00691														0.088015	4.884204	-8.465775	-0.939053	0.343657	0.008947	0.302570	0.813867	0.496056	0.163192	0.468530	-0.868244
00692														0.090905	4.879772	-8.508220	-0.939057	0.343647	0.008933	0.302568	0.813911	0.495985	0.163173	0.468461	-0.868285
00693														0.084043	4.903082	-8.454860	-0.939057	0.343646	0.008899	0.302574	0.813979	0.495870	0.163160	0.468343	-0.868351
00694														0.103879	4.891126	-8.482036	-0.939056	0.343651	0.008848	0.302593	0.814098	0.495664	0.163132	0.468133	-0.868469
00695														0.102331	4.905808	-8.513432	-0.939055	0.343657	0.008715	0.302579	0.814242	0.495435	0.163164	0.467877	-0.868601
00696														0.053297	4.884018	-8.544974	-0.939057	0.343654	0.008650	0.302584	0.814367	0.495227	0.163143	0.467664	-0.868721
00697														0.115032	4.817589	-8.564336	-0.939042	0.343693	0.008649	0.302641	0.814419	0.495107	0.163121	0.467544	-0.868789
00698														0.094902	4.826483	-8.538937	-0.939041	0.343694	0.008712	0.302676	0.814423	0.495078	0.163060	0.467535	-0.868805
00699														0.130081	4.813763	-8.507063	-0.939050	0.343668	0.008763	0.302663	0.814383	0.495152	0.163032	0.467624	-0.868762
00700														0.120052	4.778735	-8.546870	-0.939044	0.343686	0.008776	0.302664	0.814312	0.495268	0.163071	0.467735	-0.868696
00701														0.150566	4.805446	-8.532129	-0.939052	0.343663	0.008761	0.302599	0.814215	0.495467	0.163141	0.467920	-0.868583
00702														0.058001	4.828875	-8.497083	-0.939060	0.343642	0.008721	0.302518	0.814101	0.495704	0.163245	0.468134	-0.868448
00703														0.094621	4.831780	-8.535944	-0.939071	0.343614	0.008671	0.302423	0.813984	0.495955	0.163359	0.468359	-0.868305
00704														0.072582	4.878521	-8.568447	-0.939078	0.343597	0.008622	0.302328	0.813833	0.496260	0.163496	0.468633	-0.868131
00705														0.073163	4.846414	-8.507281	-0.939079	0.343593	0.008578	0.302258	0.813711	0.496503	0.163615	0.468848	-0.867993
00706														0.082485	4.901342	-8.495793	-0.939102	0.343532	0.008566	0.302147	0.813579	0.496786	0.163693	0.469120	-0.867831
00707														0.064785	4.909692	-8.510581	-0.939112	0.343506	0.008527	0.302065	0.813478	0.497002	0.163787	0.469316	-0.867707
00708														0.031004	4.889378	-8.481796	-0.939118	0.343488	0.008545	0.302024	0.813382	0.497183	0.163826	0.469495	-0.867604
00709														0.061682	4.915893	-8.467098	-0.939125	0.343470	0.008563	0.301997	0.813332	0.497281	0.163836	0.469595	-0.867547
00710														0.061314	4.933331	-8.496890	-0.939124	0.343469	0.008603	0.302012	0.813312	0.497305	0.163812	0.469629	-0.867533
00711														0.044267	4.939061	-8.513189	-0.939123	0.343472	0.008644	0.302044	0.813337	0.497245	0.163759	0.469585	-0.867567
00712														0.062005	4.931460	-8.497971	-0.939110	0.343508	0.008699	0.302125	0.813385	0.497117	0.163688	0.469476	-0.867640
00713														0.083507	4.902137	-8.495324	-0.939108	0.343511	0.008781	0.302209	0.813493	0.496890	0.163544	0.469287	-0.867769
00714														0.121939	4.883288	-8.506865	-0.939103	0.343522	0.008862	0.302298	0.813595	0.496668	0.163406	0.469101	-0.867895
00715														0.105596	4.869707	-8.494435	-0.939091	0.343554	0.008891	0.302385	0.813710	0.496427	0.163315	0.468878	-0.868033
00716														0.088727	4.873131	-8.512048	-0.939091	0.343551	0.008978	0.302472	0.813837	0.496165	0.163152	0.468659	-0.868182
00717														0.093099	4.849565	-8.525625	-0.939091	0.343549	0.009072	0.302552	0.813929	0.495966	0.163005	0.468501	-0.868295
00718														0.111294	4.841227	-8.510802	-0.939087	0.343558	0.009167	0.302631	0.813987	0.495822	0.162882	0.468394	-0.868376
00719														0.149813	4.823279	-8.521760	-0.939087	0.343554	0.009252	0.302690	0.814037	0.495705	0.162770	0.468310	-0.868442
00720														0.132944	4.828319	-8.538439	-0.939097	0.343527	0.009282	0.302690	0.814069	0.495652	0.162714	0.468275	-0.868472
00721														0.120315	4.778838	-8.506859	-0.939092	0.343542	0.009282	0.302697	0.814047	0.495684	0.162733	0.468303	-0.868453
00722														0.163954	4.836321	-8.494620	-0.939108	0.343497	0.009264	0.302638	0.814031	0.495745	0.162746	0.468362	-0.868419
00723														0.111648	4.838480	-8.512359	-0.939105	0.343508	0.009134	0.302562	0.813980	0.495876	0.162902	0.468443	-0.868346
00724														0.089668	4.866599	-8.515774	-0.939132	0.343436	0.009065	0.302441	0.813940	0.496015	0.162971	0.468566	-0.868266
00725														0.091878	4.864058	-8.557104	-0.939147	0.343399	0.008986	0.302337	0.813865	0.496201	0.163082	0.468722	-0.868161
00726														0.067286	4.896405	-8.518213	-0.939160	0.343363	0.008952	0.302256	0.813784	0.496384	0.163155	0.468890	-0.868057
00727														0.087834	4.870568	-8.513524	-0.939167	0.343344	0.008924	0.302195	0.813703	0.496553	0.163227	0.469044	-0.867960
00728														0.117565	4.914510	-8.528681	-0.939163	0.343356	0.008912	0.302171	0.813621	0.496703	0.163295	0.469178	-0.867875
00729														0.049533	4.888989	-8.502252	-0.939172	0.343331	0.008882	0.302110	0.813561	0.496837	0.163354	0.469299	-0.867798
00730														0.083551	4.894167	-8.499918	-0.939165	0.343350	0.008902	0.302127	0.813525	0.496886	0.163363	0.469348	-0.867770
00731														0.082934	4.911430	-8.529814	-0.939165	0.343351	0.008887	0.302113	0.813503	0.496931	0.163392	0.469385	-0.867744
00732														0.099592	4.922190	-8.543861	-0.939161	0.343362	0.008892	0.302124	0.813499	0.496931	0.163393	0.469385	-0.867745
00733														0.065844	4.899909	-8.516209	-0.939148	0.343398	0.008872	0.302147	0.813494	0.496926	0.163426	0.469367	-0.867748
00734														0.100428	4.886712	-8.484621	-0.939149	0.343394	0.008883	0.302160	0.813523	0.496870	0.163396	0.469320	-0.867779
00735														0.083101	4.891931	-8.501209	-0.939139	0.343423	0.008894	0.302204	0.813554	0.496793	0.163375	0.469245	-0.867823
00736														0.083118	4.890817	-8.501850	-0.939126	0.343459	0.008903	0.302253	0.813579	0.496722	0.163360	0.469176	-0.867864
00737														0.086637	4.868609	-8.514657	-0.939120	0.343474	0.008897	0.302284	0.813636	0.496609	0.163333	0.469065	-0.867929
00738														0.063195	4.880939	-8.447442	-0.939113	0.343493	0.008912	0.302326	0.813679	0.496513	0.163297	0.468976	-0.867984
00739														0.083007	4.886803	-8.504159	-0.939116	0.343485	0.008913	0.302337	0.813731	0.496422	0.163261	0.468892	-0.868036
00740														0.107522	4.837167	-8.513158	-0.939109	0.343503	0.008926	0.302386	0.813801	0.496277	0.163209	0.468757	-0.868118
00741														0.069266	4.868857	-8.534078	-0.939111	0.343497	0.008938	0.302409	0.813868	0.496153	0.163153	0.468645	-0.868189
00742														0.104006	4.854811	-8.502977	-0.939110	0.343501	0.008948	0.302440	0.813929	0.496034	0.163105	0.468537	-0.868257
00743														0.065645	4.886754	-8.523766	-0.939106	0.343510	0.008941	0.302463	0.813981	0.495935	0.163081	0.468440	-0.868313
00744														0.066320	4.868214	-8.494601	-0.939105	0.343512	0.008987	0.302507	0.814030	0.495828	0.163007	0.468354	-0.868374
00745														0.083447	4.877750	-8.509350	-0.939106	0.343509	0.009025	0.302539	0.814075	0.495734	0.162942	0.468277	-0.868427
00746														0.121067	4.877459	-8.549980	-0.939093	0.343543	0.009093	0.302613	0.814087	0.495669	0.162881	0.468231	-0.868464
00747														0.104642	4.865445	-8.536641	-0.939099	0.343526	0.009117	0.302624	0.814132	0.495588	0.162825	0.468165	-0.868510
00748														0.105403	4.847241	-8.507278	-0.939100	0.343521	0.009150	0.302647	0.814160	0.495528	0.162775	0.468120	-0.868544
00749														0.142681	4.847357	-8.547664	-0.939108	0.343501	0.009151	0.302632	0.814174	0.495514	0.162759	0.468110	-0.868552
00750														0.143148	4.829951	-8.517850	-0.939119	0.343471	0.009147	0.302598	0.814166	0.495548	0.162759	0.468147	-0.868532
00751														0.125594	4.836274	-8.533802	-0.939129	0.343442	0.009125	0.302550	0.814143	0.495615	0.162786	0.468208	-0.868494
00752														0.121624	4.857510	-8.521615	-0.939140	0.343415	0.009088	0.302496	0.814119	0.495688	0.162828	0.468269	-0.868453
00753														0.097171	4.888671	-8.483496	-0.939158	0.343366	0.009048	0.302426	0.814118	0.495733	0.162852	0.468308	-0.868428
00754														0.069101	4.859352	-8.539495	-0.939166	0.343347	0.008988	0.302369	0.814100	0.495796	0.162913	0.468352	-0.868393
00755														0.044576	4.890376	-8.501447	-0.939153	0.343381	0.008956	0.302379	0.814079	0.495824	0.162966	0.468363	-0.868377
00756														0.064766	4.880171	-8.527543	-0.939166	0.343347	0.008962	0.302350	0.814081	0.495839	0.162949	0.468385	-0.868368
00757														0.047667	4.886044	-8.543744	-0.939155	0.343376	0.009024	0.302404	0.814063	0.495836	0.162912	0.468395	-0.868370
00758														0.079458	4.893927	-8.500060	-0.939137	0.343422	0.009119	0.302497	0.814058	0.495787	0.162841	0.468371	-0.868396
00759														0.080455	4.893041	-8.500561	-0.939118	0.343470	0.009243	0.302607	0.814049	0.495734	0.162745	0.468350	-0.868425
00760														0.101978	4.881888	-8.527175	-0.939096	0.343529	0.009363	0.302732	0.814061	0.495639	0.162644	0.468287	-0.868478
00761														0.089926	4.848717	-8.525966	-0.939070	0.343596	0.009491	0.302867	0.814069	0.495544	0.162541	0.468225	-0.868531
00762														0.108024	4.841192	-8.510688	-0.939058	0.343627	0.009532	0.302931	0.814102	0.495450	0.162489	0.468144	-0.868584
00763														0.118159	4.892719	-8.501358	-0.939043	0.343665	0.009617	0.303019	0.814121	0.495365	0.162410	0.468084	-0.868632
00764														0.126068	4.849591	-8.526060	-0.939019	0.343729	0.009691	0.303126	0.814134	0.495278	0.162352	0.468013	-0.868680
00765														0.105536	4.875484	-8.530795	-0.939003	0.343772	0.009716	0.303192	0.814164	0.495188	0.162321	0.467929	-0.868732
00766														0.089120	4.863375	-8.517517	-0.938988	0.343809	0.009785	0.303271	0.814183	0.495109	0.162256	0.467869	-0.868776
00767														0.144589	4.839763	-8.512079	-0.938975	0.343846	0.009809	0.303329	0.814208	0.495032	0.162228	0.467799	-0.868819
00768														0.089171	4.878403	-8.548683	-0.938962	0.343880	0.009842	0.303379	0.814206	0.495006	0.162209	0.467777	-0.868834
00769														0.110209	4.850375	-8.545142	-0.938947	0.343920	0.009844	0.303427	0.814231	0.494933	0.162203	0.467703	-0.868875
00770														0.073127	4.848878	-8.505597	-0.938945	0.343926	0.009882	0.303449	0.814218	0.494943	0.162177	0.467723	-0.868869
00771														0.055956	4.854720	-8.521826	-0.938939	0.343942	0.009893	0.303468	0.814211	0.494942	0.162176	0.467722	-0.868870
00772														0.111467	4.831833	-8.515961	-0.938928	0.343969	0.009984	0.303535	0.814190	0.494935	0.162113	0.467739	-0.868873
00773														0.108396	4.852415	-8.504185	-0.938925	0.343976	0.010017	0.303555	0.814178	0.494943	0.162093	0.467755	-0.868867
00774														0.108741	4.852120	-8.504349	-0.938919	0.343990	0.010070	0.303590	0.814158	0.494954	0.162060	0.467779	-0.868861
00775														0.142637	4.873506	-8.532504	-0.938917	0.343996	0.010090	0.303606	0.814157	0.494947	0.162045	0.467778	-0.868864
00776														0.071538	4.867554	-8.494902	-0.938915	0.344000	0.010139	0.303635	0.814152	0.494937	0.162003	0.467782	-0.868870
00777														0.113058	4.829664	-8.517170	-0.938905	0.344028	0.010139	0.303666	0.814167	0.494893	0.162002	0.467736	-0.868895
00778														0.091556	4.873062	-8.551704	-0.938907	0.344021	0.010149	0.303672	0.814190	0.494852	0.161976	0.467702	-0.868918
00779														0.075492	4.844288	-8.508192	-0.938912	0.344007	0.010198	0.303693	0.814213	0.494800	0.161911	0.467671	-0.868947
00780														0.126788	4.859093	-8.520532	-0.938912	0.344005	0.010234	0.303713	0.814221	0.494776	0.161873	0.467659	-0.868960
00781														0.109703	4.864630	-8.536937	-0.938911	0.344007	0.010263	0.303733	0.814229	0.494750	0.161840	0.467643	-0.868975
00782														0.096228	4.849194	-8.565314	-0.938910	0.344010	0.010300	0.303757	0.814235	0.494724	0.161804	0.467630	-0.868989
00783														0.097070	4.831580	-8.535611	-0.938908	0.344013	0.010343	0.303782	0.814233	0.494713	0.161766	0.467632	-0.868995
00784														0.110705	4.863071	-8.537812	-0.938908	0.344011	0.010403	0.303805	0.814213	0.494732	0.161722	0.467668	-0.868983
00785														0.111494	4.845772	-8.507931	-0.938924	0.343968	0.010412	0.303770	0.814221	0.494740	0.161697	0.467686	-0.868979
00786														0.090715	4.872476	-8.512262	-0.938916	0.343989	0.010453	0.303811	0.814217	0.494722	0.161668	0.467678	-0.868988
00787														0.098086	4.830221	-8.536369	-0.938923	0.343969	0.010456	0.303788	0.814204	0.494756	0.161667	0.467714	-0.868969
00788														0.131880	4.851829	-8.564390	-0.938925	0.343962	0.010503	0.303801	0.814189	0.494774	0.161632	0.467747	-0.868958
00789														0.094888	4.850864	-8.524586	-0.938927	0.343955	0.010521	0.303800	0.814176	0.494796	0.161622	0.467773	-0.868946
00790														0.108150	4.882459	-8.526737	-0.938930	0.343947	0.010532	0.303796	0.814173	0.494803	0.161612	0.467785	-0.868941
00791														0.132791	4.834032	-8.534789	-0.938930	0.343947	0.010550	0.303803	0.814166	0.494810	0.161599	0.467798	-0.868937
00792														0.111797	4.860944	-8.539009	-0.938933	0.343939	0.010538	0.303786	0.814157	0.494836	0.161614	0.467819	-0.868923
00793														0.128951	4.854476	-8.523131	-0.938936	0.343929	0.010530	0.303776	0.814166	0.494827	0.161613	0.467810	-0.868928
00794														0.090492	4.887092	-8.543670	-0.938936	0.343932	0.010517	0.303781	0.814195	0.494776	0.161606	0.467758	-0.868957
00795														0.114711	4.838317	-8.551916	-0.938941	0.343918	0.010472	0.303749	0.814210	0.494771	0.161634	0.467742	-0.868960
00796														0.090312	4.868902	-8.514311	-0.938938	0.343926	0.010462	0.303755	0.814218	0.494754	0.161641	0.467722	-0.868970
00797														0.106968	4.879124	-8.528661	-0.938937	0.343929	0.010456	0.303761	0.814238	0.494717	0.161634	0.467685	-0.868991
00798														0.093570	4.846554	-8.527052	-0.938935	0.343936	0.010433	0.303763	0.814257	0.494686	0.161645	0.467647	-0.869009
00799														0.107587	4.843638	-8.469422	-0.938934	0.343939	0.010427	0.303769	0.814277	0.494649	0.161639	0.467610	-0.869030
00800														0.093191	4.845012	-8.527932	-0.938935	0.343938	0.010413	0.303771	0.814307	0.494598	0.161631	0.467558	-0.869059
00801														0.109714	4.855152	-8.542330	-0.938935	0.343937	0.010383	0.303760	0.814322	0.494580	0.161649	0.467532	-0.869070
00802														0.092125	4.860531	-8.558826	-0.938926	0.343964	0.010376	0.303790	0.814346	0.494522	0.161648	0.467471	-0.869103
00803														0.136726	4.883062	-8.487339	-0.938907	0.344014	0.010368	0.303843	0.814367	0.494455	0.161656	0.467398	-0.869141
00804														0.088642	4.862530	-8.517969	-0.938910	0.344008	0.010341	0.303835	0.814402	0.494403	0.161657	0.467341	-0.869172
00805														0.091866	4.840601	-8.530451	-0.938906	0.344018	0.010300	0.303836	0.814439	0.494341	0.161674	0.467270	-0.869207
00806														0.108180	4.850505	-8.544990	-0.938898	0.344042	0.010256	0.303846	0.814468	0.494286	0.161702	0.467201	-0.869239
00807														0.104107	4.870596	-8.533570	-0.938881	0.344089	0.010224	0.303881	0.814484	0.494238	0.161734	0.467138	-0.869266
00808														0.090623	4.837931	-8.531979	-0.938870	0.344120	0.010206	0.303907	0.814499	0.494199	0.161751	0.467091	-0.869289
00809														0.103402	4.868789	-8.534609	-0.938859	0.344153	0.010158	0.303929	0.814541	0.494115	0.161777	0.466992	-0.869337
00810														0.102724	4.867700	-8.535239	-0.938843	0.344198	0.010083	0.303944	0.814572	0.494056	0.161840	0.466905	-0.869372
00811														0.102119	4.866546	-8.535904	-0.938826	0.344246	0.010050	0.303988	0.814614	0.493959	0.161857	0.466796	-0.869427
00812														0.088612	4.833541	-8.534488	-0.938818	0.344267	0.010029	0.304008	0.814643	0.493899	0.161863	0.466730	-0.869461
00813														0.105713	4.826450	-8.518982	-0.938809	0.344293	0.010016	0.304035	0.814669	0.493840	0.161866	0.466666	-0.869495
00814														0.101931	4.846583	-8.507555	-0.938794	0.344332	0.010012	0.304074	0.814677	0.493802	0.161876	0.466623	-0.869517
00815														0.105314	4.824846	-8.519895	-0.938780	0.344373	0.009979	0.304101	0.814688	0.493768	0.161911	0.466574	-0.869537
00816														0.139079	4.828694	-8.518350	-0.938769	0.344404	0.009949	0.304126	0.814720	0.493700	0.161927	0.466495	-0.869576
00817														0.079421	4.887981	-8.543307	-0.938769	0.344404	0.009917	0.304124	0.814761	0.493633	0.161929	0.466423	-0.869614
00818														0.104111	4.821914	-8.521570	-0.938748	0.344463	0.009869	0.304163	0.814781	0.493576	0.161978	0.466345	-0.869647
00819														0.078588	4.886022	-8.544435	-0.938739	0.344489	0.009856	0.304191	0.814806	0.493516	0.161980	0.466281	-0.869681
00820														0.099873	4.840990	-8.510763	-0.938732	0.344507	0.009834	0.304207	0.814836	0.493457	0.161986	0.466216	-0.869715
00821														0.068575	4.831221	-8.555341	-0.938723	0.344533	0.009821	0.304235	0.814862	0.493398	0.161989	0.466152	-0.869748
00822														0.099440	4.839024	-8.511886	-0.938719	0.344543	0.009808	0.304250	0.814896	0.493333	0.161981	0.466085	-0.869785
00823														0.099178	4.838022	-8.512458	-0.938713	0.344561	0.009781	0.304264	0.814927	0.493272	0.161991	0.466017	-0.869820
00824														0.098734	4.837037	-8.513023	-0.938712	0.344566	0.009732	0.304257	0.814967	0.493210	0.162012	0.465943	-0.869856
00825														0.115105	4.846924	-8.527591	-0.938699	0.344602	0.009709	0.304288	0.814988	0.493156	0.162030	0.465879	-0.869887
00826														0.097268	4.852055	-8.544206	-0.938702	0.344595	0.009645	0.304264	0.815035	0.493094	0.162057	0.465803	-0.869923
00827														0.093740	4.855290	-8.502718	-0.938697	0.344609	0.009630	0.304275	0.815050	0.493062	0.162065	0.465766	-0.869941
00828														0.083455	4.818490	-8.543046	-0.938694	0.344616	0.009617	0.304287	0.815085	0.492997	0.162056	0.465700	-0.869978
00829														0.096341	4.849404	-8.545721	-0.938690	0.344628	0.009589	0.304293	0.815111	0.492950	0.162068	0.465646	-0.870005
00830														0.078683	4.854506	-8.562344	-0.938682	0.344650	0.009568	0.304316	0.815147	0.492877	0.162071	0.465566	-0.870047
00831														0.095686	4.847405	-8.546863	-0.938672	0.344679	0.009532	0.304335	0.815173	0.492822	0.162095	0.465499	-0.870078
00832														0.078542	4.835689	-8.533335	-0.938669	0.344689	0.009509	0.304341	0.815198	0.492777	0.162103	0.465448	-0.870104
00833														0.112254	4.839559	-8.531811	-0.938662	0.344710	0.009459	0.304346	0.815230	0.492721	0.162135	0.465377	-0.870136
00834														0.081401	4.812830	-8.546256	-0.938652	0.344737	0.009450	0.304377	0.815254	0.492662	0.162134	0.465314	-0.870170
00835														0.111670	4.837661	-8.532895	-0.938626	0.344809	0.009425	0.304438	0.815265	0.492606	0.162171	0.465242	-0.870201
00836														0.093988	4.842812	-8.549485	-0.938628	0.344803	0.009397	0.304429	0.815299	0.492554	0.162173	0.465186	-0.870231
00837														0.111001	4.835872	-8.533918	-0.938624	0.344815	0.009369	0.304435	0.815325	0.492508	0.162185	0.465132	-0.870258
00838														0.110616	4.835027	-8.534402	-0.938622	0.344820	0.009332	0.304432	0.815355	0.492461	0.162202	0.465075	-0.870285
00839														0.110692	4.817317	-8.504765	-0.938617	0.344836	0.009281	0.304429	0.815381	0.492419	0.162236	0.465018	-0.870309
00840														0.092740	4.822748	-8.521194	-0.938613	0.344848	0.009223	0.304414	0.815391	0.492411	0.162287	0.464991	-0.870314
00841														0.091650	4.839015	-8.551660	-0.938618	0.344835	0.009189	0.304395	0.815422	0.492372	0.162294	0.464946	-0.870336
00842														0.074355	4.827262	-8.538142	-0.938611	0.344857	0.009130	0.304400	0.815463	0.492301	0.162328	0.464859	-0.870377
00843														0.091288	4.820322	-8.522582	-0.938606	0.344870	0.009115	0.304410	0.815478	0.492270	0.162336	0.464823	-0.870395
00844														0.100926	4.855653	-8.483198	-0.938607	0.344870	0.009054	0.304386	0.815504	0.492242	0.162376	0.464778	-0.870411
00845														0.056186	4.814240	-8.525344	-0.938594	0.344905	0.009021	0.304405	0.815509	0.492222	0.162413	0.464743	-0.870423
00846														0.072023	4.841359	-8.569843	-0.938596	0.344902	0.008996	0.304395	0.815523	0.492205	0.162426	0.464719	-0.870433
00847														0.103396	4.832840	-8.496081	-0.938600	0.344891	0.008975	0.304380	0.815543	0.492181	0.162430	0.464693	-0.870447
00848														0.085713	4.838114	-8.512587	-0.938590	0.344918	0.008943	0.304399	0.815569	0.492127	0.162450	0.464627	-0.870478
00849														0.109399	4.806263	-8.550684	-0.938595	0.344906	0.008911	0.304371	0.815573	0.492136	0.162473	0.464629	-0.870472
00850														0.067565	4.843047	-8.529290	-0.938594	0.344910	0.008873	0.304364	0.815596	0.492104	0.162494	0.464586	-0.870491
00851														0.088139	4.815225	-8.525496	-0.938586	0.344933	0.008836	0.304374	0.815617	0.492063	0.162522	0.464533	-0.870515
00852														0.087187	4.831484	-8.555964	-0.938603	0.344887	0.008812	0.304323	0.815637	0.492061	0.162518	0.464532	-0.870516
00853														0.074325	4.782419	-8.523819	-0.938608	0.344875	0.008780	0.304296	0.815641	0.492071	0.162541	0.464533	-0.870511
00854														0.065499	4.858011	-8.560502	-0.938605	0.344883	0.008757	0.304286	0.815626	0.492102	0.162575	0.464554	-0.870494
00855														0.089889	4.809793	-8.568183	-0.938609	0.344872	0.008738	0.304263	0.815620	0.492126	0.162594	0.464573	-0.870480
00856														0.086537	4.813829	-8.526301	-0.938615	0.344856	0.008710	0.304231	0.815617	0.492151	0.162617	0.464590	-0.870466
00857														0.102500	4.841398	-8.570554	-0.938610	0.344871	0.008709	0.304238	0.815594	0.492184	0.162637	0.464618	-0.870448
00858														0.099641	4.845482	-8.528641	-0.938619	0.344844	0.008762	0.304235	0.815580	0.492210	0.162590	0.464663	-0.870432
00859														0.086485	4.813609	-8.526426	-0.938634	0.344806	0.008713	0.304169	0.815574	0.492261	0.162628	0.464703	-0.870404
00860														0.081882	4.851446	-8.544748	-0.938627	0.344825	0.008705	0.304179	0.815559	0.492279	0.162651	0.464714	-0.870394
00861														0.065027	4.840418	-8.530802	-0.938632	0.344811	0.008709	0.304165	0.815552	0.492300	0.162648	0.464737	-0.870382
00862														0.085423	4.829991	-8.556824	-0.938645	0.344774	0.008712	0.304131	0.815555	0.492315	0.162632	0.464758	-0.870374
00863														0.048136	4.829145	-8.516994	-0.938653	0.344752	0.008702	0.304104	0.815554	0.492334	0.162636	0.464777	-0.870363
00864														0.082058	4.833752	-8.515101	-0.938664	0.344723	0.008682	0.304066	0.815557	0.492353	0.162645	0.464794	-0.870353
00865														0.081366	4.850308	-8.545399	-0.938671	0.344705	0.008696	0.304056	0.815560	0.492353	0.162625	0.464802	-0.870352
00866														0.098693	4.843995	-8.529496	-0.938667	0.344716	0.008686	0.304058	0.815548	0.492371	0.162645	0.464813	-0.870342
00867														0.064460	4.838811	-8.531718	-0.938674	0.344696	0.008687	0.304044	0.815562	0.492357	0.162629	0.464804	-0.870350
00868														0.098015	4.860088	-8.560057	-0.938681	0.344677	0.008704	0.304033	0.815558	0.492372	0.162611	0.464826	-0.870341
00869														0.085561	4.811163	-8.527815	-0.938686	0.344663	0.008708	0.304018	0.815550	0.492392	0.162608	0.464849	-0.870330
00870														0.102326	4.821740	-8.542019	-0.938689	0.344654	0.008717	0.304013	0.815548	0.492400	0.162598	0.464861	-0.870325
00871														0.085428	4.810644	-8.528109	-0.938700	0.344624	0.008693	0.303973	0.815552	0.492418	0.162610	0.464876	-0.870315
00872														0.098380	4.842318	-8.530452	-0.938706	0.344609	0.008700	0.303959	0.815544	0.492439	0.162603	0.464900	-0.870303
00873														0.080804	4.848124	-8.546643	-0.938720	0.344572	0.008663	0.303906	0.815554	0.492456	0.162622	0.464911	-0.870294
00874														0.067531	4.816083	-8.544510	-0.938718	0.344577	0.008675	0.303911	0.815535	0.492485	0.162624	0.464941	-0.870278
00875														0.080467	4.847896	-8.546776	-0.938740	0.344517	0.008645	0.303838	0.815538	0.492524	0.162633	0.464979	-0.870256
00876														0.101228	4.820716	-8.542610	-0.938744	0.344508	0.008630	0.303821	0.815538	0.492535	0.162645	0.464986	-0.870250
00877														0.118247	4.814664	-8.526567	-0.938751	0.344488	0.008585	0.303772	0.815521	0.492593	0.162691	0.465030	-0.870218
00878														0.080117	4.831063	-8.516645	-0.938767	0.344446	0.008576	0.303719	0.815503	0.492655	0.162700	0.465093	-0.870182
00879														0.079274	4.848044	-8.546703	-0.938782	0.344405	0.008550	0.303663	0.815496	0.492701	0.162716	0.465136	-0.870156
00880														0.079608	4.831305	-8.516513	-0.938792	0.344380	0.008532	0.303623	0.815479	0.492755	0.162737	0.465185	-0.870126
00881														0.092948	4.846439	-8.488557	-0.938810	0.344331	0.008492	0.303554	0.815477	0.492800	0.162761	0.465224	-0.870101
00882														0.095583	4.842154	-8.530577	-0.938810	0.344332	0.008455	0.303535	0.815475	0.492816	0.162798	0.465227	-0.870093
00883														0.082139	4.810259	-8.528359	-0.938827	0.344285	0.008428	0.303469	0.815463	0.492876	0.162817	0.465283	-0.870059
00884														0.081754	4.810381	-8.528294	-0.938833	0.344271	0.008388	0.303431	0.815450	0.492920	0.162858	0.465315	-0.870034
00885														0.094318	4.842408	-8.530447	-0.938849	0.344227	0.008338	0.303357	0.815439	0.492985	0.162899	0.465368	-0.869998
00886														0.093823	4.842700	-8.530287	-0.938872	0.344165	0.008299	0.303272	0.815426	0.493058	0.162926	0.465436	-0.869957
00887														0.093175	4.842972	-8.530139	-0.938882	0.344141	0.008218	0.303201	0.815416	0.493119	0.163001	0.465472	-0.869923
00888														0.075760	4.832287	-8.515991	-0.938911	0.344064	0.008176	0.303105	0.815419	0.493172	0.163016	0.465523	-0.869893
00889														0.091957	4.843290	-8.529972	-0.938921	0.344036	0.008118	0.303043	0.815408	0.493229	0.163069	0.465563	-0.869862
00890														0.073967	4.849348	-8.546011	-0.938949	0.343961	0.008064	0.302946	0.815421	0.493267	0.163090	0.465596	-0.869840
00891														0.091281	4.826658	-8.499733	-0.938965	0.343920	0.007990	0.302863	0.815410	0.493336	0.163153	0.465645	-0.869802
00892														0.077125	4.811831	-8.527519	-0.938986	0.343863	0.007976	0.302796	0.815401	0.493392	0.163155	0.465703	-0.869771
00893														0.090506	4.827026	-8.499532	-0.939010	0.343797	0.007944	0.302714	0.815399	0.493445	0.163167	0.465755	-0.869741
00894														0.072844	4.833149	-8.515527	-0.939029	0.343747	0.007931	0.302654	0.815388	0.493500	0.163172	0.465811	-0.869710
00895														0.072061	4.850149	-8.545572	-0.939048	0.343696	0.007927	0.302597	0.815376	0.493556	0.163170	0.465871	-0.869678
00896														0.089831	4.827538	-8.499248	-0.939061	0.343661	0.007894	0.302539	0.815357	0.493622	0.163202	0.465929	-0.869641
00897														0.072263	4.834003	-8.515047	-0.939085	0.343593	0.007899	0.302462	0.815318	0.493735	0.163203	0.466048	-0.869577
00898														0.106513	4.839626	-8.512613	-0.939093	0.343572	0.007934	0.302438	0.815257	0.493850	0.163205	0.466170	-0.869511
00899														0.085424	4.867296	-8.516470	-0.939101	0.343549	0.007914	0.302390	0.815213	0.493951	0.163245	0.466263	-0.869454
00900														0.088184	4.863699	-8.558113	-0.939118	0.343504	0.007880	0.302317	0.815183	0.494046	0.163283	0.466350	-0.869400
00901														0.071666	4.836430	-8.513674	-0.939134	0.343461	0.007843	0.302247	0.815160	0.494126	0.163320	0.466421	-0.869355
00902														0.105482	4.841782	-8.511400	-0.939155	0.343405	0.007830	0.302176	0.815132	0.494216	0.163334	0.466511	-0.869304
00903														0.084206	4.869300	-8.515336	-0.939167	0.343371	0.007820	0.302124	0.815093	0.494312	0.163359	0.466604	-0.869249
00904														0.091396	4.827668	-8.538794	-0.939183	0.343330	0.007787	0.302060	0.815076	0.494378	0.163388	0.466663	-0.869212
00905														0.049436	4.865151	-8.516930	-0.939192	0.343306	0.007754	0.302008	0.815044	0.494465	0.163433	0.466739	-0.869163
00906														0.069543	4.855390	-8.542616	-0.939218	0.343233	0.007725	0.301919	0.815035	0.494533	0.163444	0.466806	-0.869125
00907														0.086875	4.849784	-8.526334	-0.939220	0.343229	0.007757	0.301913	0.814985	0.494618	0.163445	0.466897	-0.869076
00908														0.031798	4.872083	-8.532458	-0.939222	0.343224	0.007768	0.301906	0.814962	0.494661	0.163448	0.466941	-0.869051
00909														0.070408	4.839156	-8.512135	-0.939232	0.343194	0.007793	0.301884	0.814944	0.494705	0.163429	0.466995	-0.869026
00910														0.084312	4.854255	-8.484180	-0.939240	0.343173	0.007835	0.301877	0.814919	0.494750	0.163400	0.467054	-0.869000
00911														0.087643	4.850114	-8.526139	-0.939244	0.343160	0.007852	0.301867	0.814901	0.494786	0.163392	0.467095	-0.868979
00912														0.070516	4.856194	-8.542152	-0.939246	0.343153	0.007898	0.301869	0.814859	0.494852	0.163374	0.467173	-0.868941
00913														0.084381	4.871183	-8.514257	-0.939253	0.343134	0.007912	0.301860	0.814863	0.494853	0.163354	0.467181	-0.868941
00914														0.067035	4.877075	-8.530380	-0.939263	0.343106	0.007917	0.301825	0.814837	0.494916	0.163358	0.467246	-0.868905
00915														0.070875	4.856057	-8.542226	-0.939269	0.343089	0.007944	0.301820	0.814829	0.494932	0.163333	0.467272	-0.868895
00916														0.088421	4.849959	-8.526219	-0.939273	0.343077	0.007964	0.301813	0.814810	0.494969	0.163323	0.467315	-0.868874
00917														0.068696	4.843106	-8.470272	-0.939276	0.343071	0.007982	0.301811	0.814797	0.494990	0.163313	0.467342	-0.868862
00918														0.105447	4.860759	-8.540312	-0.939286	0.343041	0.008009	0.301787	0.814771	0.495049	0.163296	0.467410	-0.868828
00919														0.088955	4.849878	-8.526260	-0.939299	0.343007	0.008044	0.301769	0.814763	0.495073	0.163259	0.467449	-0.868814
00920														0.051375	4.865799	-8.516549	-0.939297	0.343010	0.008079	0.301784	0.814743	0.495096	0.163241	0.467480	-0.868801
00921														0.102323	4.881664	-8.528522	-0.939296	0.343013	0.008077	0.301774	0.814710	0.495157	0.163265	0.467536	-0.868766
00922														0.072262	4.855792	-8.542365	-0.939310	0.342974	0.008149	0.301768	0.814691	0.495192	0.163199	0.467598	-0.868745
00923														0.086320	4.870951	-8.514371	-0.939316	0.342957	0.008178	0.301754	0.814657	0.495257	0.163189	0.467670	-0.868708
00924														0.086566	4.871063	-8.514304	-0.939317	0.342951	0.008211	0.301758	0.814633	0.495293	0.163172	0.467715	-0.868687
00925														0.104163	4.865113	-8.498207	-0.939328	0.342922	0.008236	0.301735	0.814615	0.495337	0.163153	0.467769	-0.868662
00926														0.073372	4.856055	-8.542207	-0.939326	0.342926	0.008261	0.301743	0.814585	0.495380	0.163150	0.467816	-0.868637
00927														0.073699	4.856035	-8.542215	-0.939328	0.342918	0.008315	0.301755	0.814561	0.495412	0.163113	0.467864	-0.868618
00928														0.087651	4.871010	-8.514323	-0.939338	0.342893	0.008344	0.301741	0.814548	0.495444	0.163087	0.467907	-0.868600
00929														0.087940	4.870787	-8.514448	-0.939338	0.342889	0.008386	0.301757	0.814540	0.495447	0.163053	0.467923	-0.868598
00930														0.074653	4.855539	-8.542489	-0.939339	0.342886	0.008420	0.301763	0.814515	0.495484	0.163037	0.467968	-0.868576
00931														0.084023	4.908264	-8.532953	-0.939333	0.342903	0.008431	0.301783	0.814508	0.495483	0.163036	0.467968	-0.868577
00932														0.122647	4.875017	-8.512788	-0.939329	0.342913	0.008457	0.301801	0.814492	0.495499	0.163025	0.467988	-0.868568
00933														0.092376	4.848803	-8.526835	-0.939341	0.342881	0.008456	0.301770	0.814495	0.495512	0.163014	0.468007	-0.868560
00934														0.084770	4.890575	-8.503305	-0.939340	0.342882	0.008455	0.301769	0.814488	0.495525	0.163020	0.468018	-0.868552
00935														0.074911	4.854130	-8.543287	-0.939341	0.342881	0.008461	0.301771	0.814492	0.495518	0.163012	0.468013	-0.868557
00936														0.084813	4.889826	-8.503735	-0.939337	0.342890	0.008485	0.301789	0.814480	0.495526	0.163000	0.468026	-0.868552
00937														0.088632	4.868621	-8.515679	-0.939332	0.342905	0.008484	0.301795	0.814458	0.495558	0.163019	0.468054	-0.868533
00938														0.074369	4.870249	-8.573831	-0.939345	0.342869	0.008486	0.301763	0.814461	0.495573	0.163005	0.468074	-0.868525
00939														0.067972	4.878443	-8.489982	-0.939335	0.342895	0.008476	0.301773	0.814434	0.495611	0.163039	0.468103	-0.868503
00940														0.057400	4.859036	-8.559978	-0.939341	0.342880	0.008470	0.301756	0.814437	0.495617	0.163038	0.468109	-0.868500
00941														0.088241	4.867927	-8.516080	-0.939342	0.342876	0.008465	0.301746	0.814425	0.495643	0.163050	0.468133	-0.868485
00942														0.088083	4.867722	-8.516199	-0.939345	0.342869	0.008450	0.301731	0.814423	0.495654	0.163063	0.468140	-0.868479
00943														0.071230	4.856582	-8.502304	-0.939350	0.342855	0.008454	0.301717	0.814416	0.495675	0.163060	0.468163	-0.868467
00944														0.087682	4.867205	-8.516499	-0.939352	0.342851	0.008403	0.301688	0.814426	0.495675	0.163099	0.468149	-0.868467
00945														0.073847	4.851884	-8.544573	-0.939363	0.342820	0.008415	0.301662	0.814419	0.495704	0.163084	0.468185	-0.868451
00946														0.087228	4.866691	-8.516797	-0.939369	0.342805	0.008373	0.301630	0.814433	0.495699	0.163109	0.468170	-0.868454
00947														0.086264	4.882971	-8.547255	-0.939364	0.342819	0.008358	0.301641	0.814448	0.495668	0.163117	0.468134	-0.868472
00948														0.086472	4.865545	-8.517459	-0.939363	0.342825	0.008298	0.301620	0.814461	0.495660	0.163166	0.468108	-0.868477
00949														0.072390	4.850011	-8.545648	-0.939365	0.342819	0.008267	0.301601	0.814470	0.495656	0.163187	0.468095	-0.868480
00950														0.102956	4.858696	-8.501892	-0.939364	0.342824	0.008230	0.301591	0.814482	0.495643	0.163216	0.468071	-0.868487
00951														0.067878	4.870060	-8.534380	-0.939370	0.342807	0.008208	0.301568	0.814497	0.495633	0.163221	0.468058	-0.868493
00952														0.072079	4.831920	-8.516231	-0.939368	0.342813	0.008197	0.301561	0.814479	0.495666	0.163245	0.468085	-0.868475
00953														0.102136	4.857603	-8.502527	-0.939368	0.342813	0.008167	0.301551	0.814494	0.495648	0.163263	0.468058	-0.868485
00954														0.063337	4.889985	-8.523189	-0.939367	0.342815	0.008153	0.301547	0.814497	0.495645	0.163274	0.468051	-0.868487
00955														0.084382	4.862806	-8.519045	-0.939375	0.342795	0.008156	0.301524	0.814485	0.495679	0.163274	0.468088	-0.868467
00956														0.097961	4.877651	-8.491267	-0.939375	0.342794	0.008165	0.301529	0.814487	0.495673	0.163263	0.468085	-0.868471
00957														0.066980	4.868108	-8.535501	-0.939374	0.342797	0.008161	0.301527	0.814480	0.495684	0.163272	0.468094	-0.868464
00958														0.081199	4.866056	-8.477623	-0.939382	0.342776	0.008178	0.301516	0.814483	0.495686	0.163249	0.468104	-0.868463
00959														0.101138	4.872424	-8.533819	-0.939384	0.342768	0.008183	0.301511	0.814482	0.495692	0.163243	0.468113	-0.868460
00960														0.080452	4.882025	-8.508259	-0.939381	0.342779	0.008158	0.301514	0.814500	0.495661	0.163258	0.468074	-0.868478
00961														0.070332	4.845395	-8.548284	-0.939385	0.342767	0.008126	0.301487	0.814504	0.495670	0.163281	0.468075	-0.868473
00962														0.083634	4.860012	-8.520646	-0.939377	0.342791	0.008114	0.301509	0.814515	0.495639	0.163292	0.468038	-0.868491
00963														0.044908	4.892169	-8.541439	-0.939372	0.342805	0.008099	0.301519	0.814530	0.495607	0.163300	0.468001	-0.868509
00964														0.084045	4.841897	-8.491241	-0.939379	0.342786	0.008116	0.301513	0.814540	0.495595	0.163272	0.467999	-0.868516
00965														0.083398	4.858223	-8.521669	-0.939382	0.342776	0.008109	0.301503	0.814549	0.495586	0.163270	0.467990	-0.868521
00966														0.062359	4.884675	-8.526240	-0.939381	0.342778	0.008153	0.301527	0.814547	0.495575	0.163231	0.467992	-0.868527
00967														0.097301	4.872318	-8.494335	-0.939380	0.342782	0.008160	0.301538	0.814556	0.495553	0.163220	0.467973	-0.868539
00968														0.070317	4.841622	-8.550421	-0.939377	0.342787	0.008196	0.301558	0.814543	0.495563	0.163197	0.467992	-0.868533
00969														0.100696	4.867267	-8.536766	-0.939381	0.342778	0.008188	0.301548	0.814552	0.495554	0.163195	0.467983	-0.868538
00970														0.066550	4.861727	-8.539141	-0.939376	0.342792	0.008199	0.301569	0.814557	0.495533	0.163186	0.467965	-0.868550
00971														0.066568	4.861265	-8.539403	-0.939378	0.342784	0.008204	0.301563	0.814555	0.495540	0.163180	0.467973	-0.868547
00972														0.097010	4.886921	-8.525748	-0.939373	0.342798	0.008241	0.301593	0.814547	0.495535	0.163156	0.467977	-0.868549
00973														0.063809	4.864706	-8.497892	-0.939377	0.342787	0.008269	0.301596	0.814545	0.495537	0.163128	0.467989	-0.868548
00974														0.084011	4.871024	-8.554092	-0.939380	0.342776	0.008312	0.301607	0.814539	0.495540	0.163088	0.468008	-0.868545
00975														0.067718	4.859768	-8.540246	-0.939378	0.342780	0.008368	0.301635	0.814525	0.495545	0.163046	0.468028	-0.868542
00976														0.099128	4.868563	-8.496467	-0.939384	0.342762	0.008422	0.301648	0.814530	0.495529	0.162989	0.468032	-0.868551
00977														0.086475	4.836302	-8.494405	-0.939396	0.342732	0.008434	0.301622	0.814523	0.495558	0.162974	0.468068	-0.868534
00978														0.082162	4.873867	-8.512918	-0.939404	0.342708	0.008460	0.301615	0.814528	0.495553	0.162939	0.468076	-0.868536
00979														0.103512	4.846648	-8.508760	-0.939419	0.342667	0.008481	0.301584	0.814525	0.495576	0.162909	0.468111	-0.868523
00980														0.043685	4.906299	-8.533582	-0.939429	0.342641	0.008449	0.301539	0.814519	0.495614	0.162936	0.468142	-0.868502
00981														0.056304	4.809618	-8.508639	-0.939439	0.342611	0.008473	0.301517	0.814500	0.495658	0.162916	0.468195	-0.868476
00982														0.077655	4.911487	-8.531403	-0.939449	0.342585	0.008454	0.301472	0.814476	0.495725	0.162942	0.468257	-0.868438
00983														0.186357	4.772917	-8.551581	-0.939465	0.342540	0.008404	0.301398	0.814464	0.495790	0.162984	0.468310	-0.868402
00984														0.080229	4.891282	-8.542735	-0.939504	0.342436	0.008295	0.301232	0.814446	0.495920	0.163066	0.468418	-0.868328
00985														0.087738	4.816901	-8.505303	-0.939508	0.342431	0.008127	0.301110	0.814363	0.496130	0.163272	0.468565	-0.868210
00986														0.098903	4.850365	-8.506696	-0.939545	0.342334	0.007950	0.300909	0.814329	0.496308	0.163429	0.468696	-0.868110
00987														-0.006257	4.853348	-8.542348	-0.939570	0.342269	0.007682	0.300697	0.814306	0.496475	0.163673	0.468783	-0.868017
00988														0.035282	4.895739	-8.499876	-0.939594	0.342208	0.007499	0.300529	0.814273	0.496630	0.163845	0.468884	-0.867930
00989														0.139365	4.890832	-8.504961	-0.939615	0.342156	0.007281	0.300360	0.814265	0.496746	0.164036	0.468937	-0.867865
00990														0.000913	4.871452	-8.512736	-0.939642	0.342086	0.007085	0.300181	0.814245	0.496887	0.164209	0.469022	-0.867787
00991														0.012230	4.904294	-8.514455	-0.939659	0.342041	0.006976	0.300068	0.814213	0.497007	0.164317	0.469110	-0.867719
00992														0.028770	4.899298	-8.497849	-0.939666	0.342022	0.006924	0.300001	0.814153	0.497146	0.164398	0.469229	-0.867639
00993														-0.019239	4.879988	-8.527313	-0.939683	0.341976	0.006911	0.299931	0.814103	0.497270	0.164428	0.469349	-0.867569
00994														0.032758	4.879841	-8.508778	-0.939684	0.341970	0.007042	0.299971	0.814034	0.497360	0.164350	0.469473	-0.867516
00995														0.094379	4.932415	-8.480759	-0.939673	0.341998	0.007154	0.300034	0.813967	0.497431	0.164298	0.469569	-0.867474
00996														0.034442	4.897053	-8.538689	-0.939681	0.341974	0.007302	0.300082	0.813948	0.497433	0.164166	0.469620	-0.867472
00997														-0.060331	4.938083	-8.493856	-0.939659	0.342031	0.007500	0.300244	0.813954	0.497326	0.163996	0.469568	-0.867532
00998														-0.028071	4.979114	-8.511210	-0.939627	0.342110	0.007857	0.300519	0.813976	0.497123	0.163675	0.469472	-0.867644
00999														0.060964	4.980281	-8.492722	-0.939568	0.342263	0.008216	0.300885	0.814055	0.496772	0.163339	0.469224	-0.867842
01000														-0.007164	4.986716	-8.487722	-0.939495	0.342454	0.008656	0.301348	0.814182	0.496284	0.162907	0.468864	-0.868117
01001														-0.070536	4.971206	-8.495122	-0.939400	0.342701	0.009200	0.301920	0.814305	0.495733	0.162397	0.468469	-0.868426
01002														0.112224	4.964707	-8.541987	-0.939276	0.343024	0.009724	0.302569	0.814471	0.495065	0.161899	0.467945	-0.868801
01003														0.125971	5.010133	-8.536868	-0.939161	0.343329	0.010143	0.303177	0.814724	0.494275	0.161435	0.467279	-0.869246
01004														0.108943	5.027938	-8.546597	-0.939041	0.343642	0.010560	0.303825	0.815080	0.493290	0.160908	0.466428	-0.869801
01005														0.193577	4.930655	-8.523182	-0.938944	0.343897	0.010933	0.304423	0.815522	0.492189	0.160346	0.465467	-0.870420
01006														0.254696	4.764041	-8.537227	-0.938861	0.344115	0.011199	0.304957	0.816047	0.490987	0.159817	0.464384	-0.871095
01007														0.359103	4.750223	-8.507330	-0.938793	0.344299	0.011264	0.305365	0.816608	0.489799	0.159439	0.463259	-0.871763
01008														0.180432	4.772281	-8.531583	-0.938756	0.344400	0.011204	0.305639	0.817207	0.488629	0.159127	0.462128	-0.872420
01009														0.140913	4.809343	-8.589531	-0.938720	0.344500	0.011164	0.305931	0.817830	0.487402	0.158780	0.460949	-0.873106
01010														0.080356	4.728162	-8.593399	-0.938680	0.344610	0.011118	0.306228	0.818445	0.486182	0.158443	0.459774	-0.873787
01011														0.178075	4.768415	-8.612773	-0.938632	0.344740	0.011123	0.306559	0.819027	0.484991	0.158085	0.458638	-0.874448
01012														0.230059	4.739186	-8.570790	-0.938585	0.344868	0.011131	0.306889	0.819607	0.483800	0.157724	0.457504	-0.875108
01013														0.182818	4.690548	-8.576636	-0.938533	0.345012	0.011106	0.307207	0.820157	0.482666	0.157417	0.456410	-0.875734
01014														0.067153	4.776853	-8.646014	-0.938467	0.345191	0.011068	0.307545	0.820678	0.481564	0.157148	0.455336	-0.876341
01015														0.004312	4.846215	-8.666798	-0.938414	0.345332	0.011211	0.307932	0.821185	0.480452	0.156709	0.454315	-0.876949
01016														0.060928	4.828929	-8.696814	-0.938353	0.345489	0.011468	0.308391	0.821685	0.479301	0.156170	0.453290	-0.877576
01017														0.059150	4.726608	-8.692588	-0.938287	0.345655	0.011855	0.308914	0.822152	0.478161	0.155532	0.452315	-0.878192
01018														0.038973	4.747219	-8.661908	-0.938199	0.345877	0.012319	0.309511	0.822566	0.477063	0.154872	0.451392	-0.878783
01019														0.086131	4.666239	-8.627400	-0.938110	0.346101	0.012782	0.310106	0.822967	0.475982	0.154218	0.450487	-0.879362
01020														0.034680	4.565654	-8.640425	-0.938024	0.346312	0.013353	0.310726	0.823322	0.474963	0.153491	0.449676	-0.879905
01021														0.100960	4.624274	-8.649633	-0.937929	0.346544	0.014026	0.311393	0.823605	0.474035	0.152722	0.448979	-0.880394
01022														0.128385	4.604027	-8.680001	-0.937838	0.346760	0.014758	0.312064	0.823864	0.473143	0.151908	0.448337	-0.880862
01023														0.107033	4.680940	-8.697916	-0.937747	0.346969	0.015573	0.312748	0.824060	0.472349	0.151057	0.447815	-0.881274
01024														0.238020	4.676401	-8.721301	-0.937672	0.347134	0.016393	0.313392	0.824260	0.471573	0.150187	0.447318	-0.881675
01025														0.279532	4.673186	-8.723296	-0.937602	0.347291	0.017077	0.313965	0.824479	0.470808	0.149428	0.446792	-0.882070
01026														0.298504	4.712407	-8.761408	-0.937546	0.347414	0.017644	0.314468	0.824769	0.469963	0.148719	0.446161	-0.882510
01027														0.264803	4.751477	-8.818589	-0.937519	0.347467	0.018047	0.314848	0.825147	0.469045	0.148086	0.445421	-0.882990
01028														0.306614	4.693041	-8.771517	-0.937523	0.347439	0.018324	0.315122	0.825636	0.467999	0.147472	0.444534	-0.883539
01029														0.273702	4.533868	-8.717159	-0.937535	0.347397	0.018521	0.315352	0.826159	0.466920	0.146906	0.443595	-0.884105
01030														0.301759	4.570453	-8.698750	-0.937558	0.347331	0.018621	0.315521	0.826719	0.465814	0.146397	0.442602	-0.884687
01031														0.340290	4.527017	-8.682648	-0.937579	0.347275	0.018612	0.315644	0.827275	0.464741	0.145996	0.441606	-0.885251
01032														0.238873	4.628942	-8.726877	-0.937590	0.347248	0.018541	0.315771	0.827844	0.463640	0.145650	0.440559	-0.885829
01033														0.323408	4.795113	-8.837403	-0.937618	0.347182	0.018344	0.315846	0.828563	0.462304	0.145304	0.439259	-0.886532
01034														0.342340	4.691190	-8.716688	-0.937674	0.347054	0.017905	0.315799	0.829457	0.460730	0.145047	0.437669	-0.887360
01035														0.217500	4.522395	-8.684986	-0.937734	0.346914	0.017481	0.315774	0.830431	0.458988	0.144713	0.435929	-0.888270
01036														0.200840	4.427351	-8.597689	-0.937782	0.346808	0.016987	0.315736	0.831364	0.457323	0.144480	0.434233	-0.889139
01037														0.169005	4.362884	-8.629814	-0.937834	0.346697	0.016407	0.315655	0.832297	0.455680	0.144327	0.432531	-0.889992
01038														0.082032	4.305835	-8.638040	-0.937875	0.346613	0.015829	0.315568	0.833129	0.454216	0.144249	0.430993	-0.890751
01039														0.009690	4.581181	-8.809593	-0.937924	0.346500	0.015386	0.315517	0.833955	0.452734	0.144041	0.429485	-0.891513
01040														0.192882	4.412627	-8.664456	-0.937987	0.346352	0.014855	0.315414	0.834852	0.451151	0.143855	0.427859	-0.892324
01041														0.230849	4.038228	-8.540929	-0.938058	0.346197	0.013951	0.315122	0.835734	0.449718	0.144032	0.426258	-0.893061
01042														0.141289	4.394539	-8.712073	-0.938126	0.346057	0.012811	0.314707	0.836534	0.448521	0.144497	0.424801	-0.893681
01043														0.015269	4.446583	-8.723770	-0.938212	0.345870	0.011534	0.314222	0.837452	0.447146	0.144995	0.423141	-0.894387
01044														-0.103324	4.186292	-8.656119	-0.938298	0.345669	0.010479	0.313796	0.838262	0.445926	0.145359	0.421699	-0.895009
01045														-0.015375	4.241526	-8.707936	-0.938348	0.345560	0.009585	0.313498	0.838947	0.444846	0.145680	0.420425	-0.895556
01046														0.100362	4.205007	-8.670517	-0.938387	0.345475	0.008762	0.313230	0.839545	0.443904	0.146001	0.419298	-0.896032
01047														0.046128	3.988656	-8.543525	-0.938391	0.345489	0.007737	0.312921	0.840004	0.443254	0.146641	0.418366	-0.896363
01048														0.191487	4.007278	-8.595490	-0.938381	0.345542	0.006467	0.312493	0.840340	0.442918	0.147612	0.417647	-0.896539
01049														0.050782	4.358379	-8.865216	-0.938363	0.345613	0.005047	0.311985	0.840594	0.442795	0.148794	0.417077	-0.896609
01050														-0.150333	4.587924	-8.961580	-0.938355	0.345652	0.003846	0.311576	0.840923	0.442457	0.149702	0.416380	-0.896781
01051														0.061401	4.341901	-8.835938	-0.938380	0.345594	0.002763	0.311143	0.841303	0.442039	0.150442	0.415661	-0.896991
01052														0.053034	4.308098	-8.775702	-0.938400	0.345545	0.001806	0.310760	0.841626	0.441695	0.151106	0.415048	-0.897164
01053														-0.002013	4.252723	-8.743450	-0.938415	0.345509	0.000920	0.310411	0.841913	0.441393	0.151730	0.414495	-0.897314
01054														-0.023069	4.218212	-8.740367	-0.938436	0.345453	0.000110	0.310055	0.842135	0.441219	0.152327	0.414090	-0.897400
01055														0.048311	4.288462	-8.804994	-0.938432	0.345462	-0.000655	0.309760	0.842285	0.441140	0.152949	0.413777	-0.897438
01056														0.041302	4.398798	-8.810067	-0.938437	0.345449	-0.001385	0.309470	0.842464	0.441002	0.153510	0.413424	-0.897505
01057														0.102546	4.281385	-8.772442	-0.938430	0.345463	-0.002196	0.309159	0.842615	0.440932	0.154176	0.413105	-0.897538
01058														0.039222	4.301445	-8.780327	-0.938422	0.345478	-0.002990	0.308858	0.842768	0.440850	0.154824	0.412780	-0.897576
01059														0.025485	4.202631	-8.693217	-0.938398	0.345535	-0.003826	0.308570	0.842891	0.440817	0.155543	0.412482	-0.897589
01060														-0.063537	4.160251	-8.691398	-0.938358	0.345633	-0.004671	0.308287	0.842928	0.440945	0.156343	0.412324	-0.897522
01061														-0.140595	4.165638	-8.724539	-0.938309	0.345755	-0.005431	0.308044	0.842900	0.441168	0.157114	0.412279	-0.897408
01062														-0.153565	4.479720	-8.919326	-0.938269	0.345855	-0.005986	0.307865	0.842845	0.441397	0.157705	0.412306	-0.897292
01063														-0.043796	4.528362	-8.919501	-0.938229	0.345955	-0.006456	0.307758	0.842875	0.441414	0.158151	0.412161	-0.897280
01064														0.009510	4.365325	-8.846050	-0.938184	0.346068	-0.006872	0.307696	0.842923	0.441366	0.158536	0.411968	-0.897301
01065														-0.071759	4.277430	-8.751006	-0.938140	0.346180	-0.007258	0.307651	0.842979	0.441291	0.158884	0.411760	-0.897335
01066														-0.071635	4.254959	-8.761784	-0.938083	0.346326	-0.007618	0.307631	0.842981	0.441300	0.159256	0.411632	-0.897328
01067														-0.053644	4.362783	-8.864411	-0.938021	0.346485	-0.008004	0.307608	0.842965	0.441347	0.159667	0.411531	-0.897301
01068														-0.112908	4.495365	-8.875836	-0.937967	0.346625	-0.008376	0.307583	0.842985	0.441326	0.160036	0.411372	-0.897308
01069														-0.075848	4.321917	-8.787613	-0.937917	0.346745	-0.008902	0.307490	0.843064	0.441240	0.160503	0.411109	-0.897345
01070														-0.105342	4.242701	-8.747683	-0.937861	0.346882	-0.009490	0.307371	0.843107	0.441242	0.161060	0.410906	-0.897338
01071														-0.037361	4.090460	-8.688980	-0.937810	0.346999	-0.010240	0.307150	0.843136	0.441340	0.161778	0.410748	-0.897282
01072														-0.076798	4.191396	-8.735365	-0.937758	0.347111	-0.011102	0.306843	0.843096	0.441630	0.162654	0.410736	-0.897129
01073														-0.070802	4.330811	-8.784497	-0.937716	0.347194	-0.012080	0.306451	0.843053	0.441984	0.163638	0.410754	-0.896941
01074														-0.117593	4.469562	-8.850729	-0.937690	0.347226	-0.013101	0.306005	0.843061	0.442277	0.164615	0.410709	-0.896783
01075														-0.257673	4.532881	-8.910211	-0.937666	0.347255	-0.014034	0.305617	0.843113	0.442447	0.165474	0.410578	-0.896685
01076														-0.140131	4.382164	-8.834355	-0.937665	0.347218	-0.014965	0.305185	0.843228	0.442525	0.166272	0.410373	-0.896631
01077														-0.119743	4.178550	-8.741068	-0.937649	0.347217	-0.015987	0.304735	0.843311	0.442676	0.167187	0.410203	-0.896539
01078														-0.255972	4.197230	-8.706792	-0.937637	0.347197	-0.017055	0.304221	0.843336	0.442983	0.168185	0.410169	-0.896368
01079														-0.248744	4.076182	-8.611849	-0.937630	0.347162	-0.018115	0.303662	0.843285	0.443464	0.169230	0.410305	-0.896109
01080														-0.164069	4.029948	-8.581008	-0.937632	0.347097	-0.019246	0.302989	0.843113	0.444250	0.170425	0.410712	-0.895696
01081														-0.284291	4.096557	-8.734855	-0.937647	0.347001	-0.020205	0.302289	0.842765	0.445386	0.171577	0.411508	-0.895110
01082														-0.291593	4.780196	-8.981919	-0.937672	0.346881	-0.021084	0.301626	0.842473	0.446386	0.172606	0.412204	-0.894592
01083														-0.065454	4.385536	-8.800155	-0.937706	0.346717	-0.022239	0.300851	0.842341	0.447159	0.173771	0.412613	-0.894178
01084														-0.258009	4.318093	-8.764807	-0.937743	0.346537	-0.023439	0.300036	0.842208	0.447955	0.174974	0.413035	-0.893749
01085														-0.296088	4.493577	-8.831718	-0.937802	0.346291	-0.024682	0.299142	0.842102	0.448751	0.176184	0.413456	-0.893316
01086														-0.160141	4.443316	-8.825731	-0.937875	0.345987	-0.026161	0.298112	0.842083	0.449472	0.177541	0.413749	-0.892911
01087														-0.307703	4.622396	-8.884239	-0.937936	0.345700	-0.027710	0.297084	0.842112	0.450098	0.178934	0.413931	-0.892549
01088														-0.179592	4.598359	-8.827217	-0.938004	0.345385	-0.029287	0.296057	0.842242	0.450532	0.180273	0.413930	-0.892280
01089														-0.221237	4.327242	-8.726159	-0.938070	0.345060	-0.030941	0.295009	0.842432	0.450864	0.181641	0.413814	-0.892056
01090														-0.385228	4.161724	-8.604182	-0.938161	0.344673	-0.032475	0.293929	0.842565	0.451320	0.182920	0.413866	-0.891771
01091														-0.385511	4.192433	-8.647240	-0.938250	0.344292	-0.033913	0.292840	0.842561	0.452035	0.184205	0.414190	-0.891356
01092														-0.354636	4.033580	-8.515536	-0.938361	0.343854	-0.035262	0.291686	0.842451	0.452986	0.185468	0.414778	-0.890820
01093														-0.510020	3.967499	-8.518218	-0.938499	0.343369	-0.036303	0.290511	0.842073	0.454441	0.186611	0.415946	-0.890037
01094														-0.577225	3.813943	-8.415972	-0.938681	0.342803	-0.036933	0.289327	0.841423	0.456395	0.187530	0.417724	-0.889010
01095														-0.689049	3.561974	-8.398550	-0.938915	0.342183	-0.036742	0.288275	0.840296	0.459129	0.187981	0.420491	-0.887609
01096														-0.528358	3.824373	-8.571066	-0.939186	0.341544	-0.035756	0.287407	0.838738	0.462511	0.187957	0.424107	-0.885892
01097														-0.263927	4.123222	-8.653692	-0.939460	0.340919	-0.034491	0.286577	0.836893	0.466351	0.187853	0.428234	-0.883927
01098														-0.033076	4.121947	-8.748626	-0.939715	0.340316	-0.033461	0.285615	0.834926	0.470449	0.188039	0.432531	-0.881793
01099														0.264216	4.206425	-8.707082	-0.940007	0.339550	-0.033056	0.284176	0.832935	0.474829	0.188762	0.436949	-0.879457
01100														-0.167204	4.036529	-8.748497	-0.940313	0.338705	-0.033025	0.282373	0.830704	0.479788	0.189940	0.441826	-0.876763
01101														-0.123715	5.372834	-9.005561	-0.940683	0.337676	-0.033037	0.280369	0.828470	0.484801	0.191075	0.446781	-0.874001
01102														0.206269	4.528408	-8.929003	-0.941173	0.336257	-0.033539	0.277869	0.826567	0.489465	0.192308	0.451352	-0.871378
01103														0.105407	5.708733	-9.030319	-0.941618	0.334908	-0.034528	0.275106	0.824467	0.494541	0.194093	0.456169	-0.868468
01104														0.005744	4.560974	-8.922116	-0.942079	0.333404	-0.036458	0.271888	0.822829	0.499029	0.196377	0.460212	-0.865818
01105														-1.181102	4.163117	-8.723289	-0.942465	0.332125	-0.038121	0.268840	0.820743	0.504089	0.198708	0.464837	-0.862810
01106														0.230663	4.051450	-8.997069	-0.942793	0.330988	-0.039864	0.265600	0.817994	0.510238	0.201492	0.470461	-0.859109
01107														0.688456	3.192630	-9.700664	-0.943216	0.329439	-0.042576	0.261039	0.814368	0.518327	0.205430	0.477781	-0.854122
01108														0.444822	5.521622	-9.580169	-0.943449	0.328273	-0.046271	0.255844	0.809727	0.528096	0.210826	0.486393	-0.847923
01109														-0.092038	5.593087	-9.458040	-0.943427	0.327469	-0.052054	0.249472	0.804422	0.539137	0.218424	0.495651	-0.840608
01110														-0.581238	4.703817	-9.446225	-0.943983	0.324999	-0.057193	0.241421	0.798318	0.551728	0.224969	0.507014	-0.832061
01111														0.932009	5.286815	-9.705575	-0.944181	0.322950	-0.065002	0.231564	0.790988	0.566318	0.234308	0.519654	-0.821620
01112														-0.317942	5.641947	-9.088233	-0.944306	0.320585	-0.074239	0.219791	0.782361	0.582755	0.244904	0.533981	-0.809250
01113														0.338771	5.944817	-9.281436	-0.943982	0.318918	-0.084790	0.206897	0.772144	0.600822	0.257083	0.549622	-0.794874
01114														0.085755	5.541387	-9.090340	-0.943076	0.317914	-0.097667	0.192015	0.760258	0.620596	0.271548	0.566515	-0.778025
01115														0.194557	5.847350	-9.043226	-0.941486	0.317827	-0.112205	0.175401	0.746273	0.642115	0.287817	0.584862	-0.758352
01116														0.984031	6.040410	-9.096082	-0.938915	0.318744	-0.129772	0.156151	0.730598	0.664713	0.306685	0.603845	-0.735742
01117														1.522794	6.595329	-9.138794	-0.934837	0.321148	-0.151468	0.133624	0.713408	0.687891	0.328973	0.622826	-0.709834
01118														1.650123	7.150224	-9.072559	-0.928971	0.324788	-0.177557	0.107383	0.695524	0.710433	0.354235	0.640905	-0.680998
01119														0.343116	8.013574	-8.757510	-0.921198	0.329252	-0.207336	0.077383	0.677253	0.731670	0.381322	0.657968	-0.649362
01120														0.412252	9.347738	-8.192190	-0.911538	0.333644	-0.240375	0.043326	0.659218	0.750703	0.408927	0.673880	-0.615358
01121														5.174158	12.404858	-10.583918	-0.897913	0.340499	-0.278949	0.005771	0.642777	0.766031	0.440135	0.686220	-0.579123
01122														4.749670	13.710254	-11.421880	-0.878315	0.351372	-0.324192	-0.033462	0.631265	0.774845	0.476910	0.691407	-0.542692
01123														5.534376	13.191389	-8.900570	-0.850974	0.366574	-0.376120	-0.073865	0.625486	0.776731	0.519988	0.688760	-0.505195
01124														4.706045	11.965177	-6.980749	-0.814362	0.387284	-0.432234	-0.113439	0.624184	0.772998	0.569163	0.678532	-0.464378
01125														4.491031	12.390719	-6.423273	-0.771517	0.412982	-0.483951	-0.145760	0.625705	0.766320	0.619287	0.661770	-0.422546
01126														9.693450	17.978347	-6.541432	-0.735518	0.447561	-0.508627	-0.154135	0.620509	0.768902	0.659739	0.643939	-0.387411
01127														6.398609	17.894153	-9.293078	-0.715168	0.482040	-0.506135	-0.137776	0.612703	0.778212	0.685239	0.626285	-0.371771
01128														7.131348	14.822648	-7.940578	-0.691933	0.519800	-0.501035	-0.113033	0.607436	0.786285	0.713058	0.600691	-0.361551
01129														3.545810	11.434866	-5.471958	-0.667849	0.555992	-0.494823	-0.084716	0.603716	0.792685	0.739460	0.571314	-0.356090
01130														1.900488	8.079948	-3.169426	-0.641894	0.591550	-0.487894	-0.055021	0.599105	0.798777	0.764817	0.539575	-0.352014
01131														1.274436	6.165992	-2.139624	-0.617421	0.624256	-0.478639	-0.026066	0.591896	0.805593	0.786201	0.509866	-0.349177
01132														1.131799	5.335814	-2.138084	-0.593491	0.654862	-0.467893	0.000874	0.581873	0.813279	0.804840	0.482265	-0.345909
01133														1.195758	5.325019	-2.722060	-0.570020	0.683306	-0.456256	0.025310	0.569646	0.821501	0.821241	0.456724	-0.342004
01134														1.262957	5.635100	-3.678348	-0.546116	0.710137	-0.444367	0.047690	0.555950	0.829846	0.836351	0.432000	-0.337480
01135														1.207735	6.167245	-4.816986	-0.521070	0.735492	-0.433055	0.068485	0.541772	0.837731	0.850762	0.406859	-0.332671
01136														0.870542	6.463731	-5.652763	-0.494992	0.759321	-0.422391	0.088720	0.527750	0.844754	0.864356	0.380672	-0.328599
01137														0.431061	6.300494	-5.960119	-0.468471	0.781464	-0.412127	0.108984	0.514035	0.850817	0.876731	0.353668	-0.325978
01138														-0.024042	6.044515	-6.245139	-0.442637	0.801870	-0.401344	0.129787	0.500156	0.856154	0.887258	0.326876	-0.325460
01139														-0.212131	6.094034	-6.572160	-0.418392	0.820420	-0.389690	0.151224	0.485983	0.860786	0.895589	0.301216	-0.327399
01140														-0.124423	6.392833	-7.155156	-0.395833	0.837236	-0.377295	0.173706	0.471699	0.864481	0.901744	0.276652	-0.332147
01141														0.141125	6.818171	-7.552552	-0.374530	0.852426	-0.364825	0.197485	0.457771	0.866859	0.905940	0.252617	-0.339791
01142														0.578630	6.758726	-7.560311	-0.353642	0.866140	-0.353184	0.222774	0.444709	0.867529	0.908465	0.228115	-0.350221
01143														0.815100	6.296601	-7.152720	-0.332678	0.878427	-0.343063	0.248878	0.432668	0.866521	0.909607	0.202892	-0.362560
01144														0.790913	5.860049	-6.711215	-0.312033	0.889485	-0.333843	0.275547	0.421011	0.864190	0.909235	0.177667	-0.376464
01145														0.883162	5.618874	-6.279851	-0.292176	0.899582	-0.324630	0.302202	0.408893	0.861093	0.907363	0.153487	-0.391324
01146														1.178933	5.694724	-6.287567	-0.273371	0.909028	-0.314543	0.328971	0.395633	0.857469	0.903906	0.130932	-0.407199
01147														1.632923	6.318830	-6.833222	-0.255125	0.918068	-0.303419	0.355691	0.380910	0.853459	0.899108	0.109815	-0.423728
01148														2.192585	7.136335	-7.579674	-0.236544	0.926909	-0.291352	0.383117	0.364546	0.848722	0.892899	0.089138	-0.441345
01149														2.719262	7.895784	-8.171778	-0.216655	0.935529	-0.279007	0.411458	0.346676	0.842922	0.885304	0.067824	-0.460041
01150														2.952168	8.433482	-8.495929	-0.194908	0.943881	-0.266645	0.441077	0.327168	0.835711	0.876049	0.045276	-0.480092
01151														2.811555	8.870529	-8.709167	-0.171186	0.951805	-0.254485	0.471574	0.305944	0.827053	0.865051	0.021571	-0.501220
01152														2.197071	9.324014	-8.810005	-0.146206	0.959168	-0.242116	0.503025	0.282826	0.816686	0.851816	-0.002386	-0.523836
01153														1.626868	9.467345	-8.593889	-0.120833	0.965872	-0.229108	0.534836	0.257780	0.804673	0.836271	-0.025304	-0.547732
01154														1.168431	9.499761	-8.460242	-0.095720	0.971866	-0.215207	0.566593	0.230954	0.790970	0.818419	-0.046223	-0.572759
01155														0.926569	9.971818	-8.613933	-0.071162	0.977021	-0.200914	0.597535	0.203039	0.775711	0.798679	-0.064852	-0.598252
01156														0.908096	10.113512	-8.682568	-0.047110	0.981285	-0.186709	0.627826	0.174469	0.758548	0.776927	-0.081486	-0.624295
01157														0.997026	10.048602	-8.677997	-0.023470	0.984574	-0.173386	0.656794	0.145939	0.739813	0.753705	-0.096516	-0.650087
01158														1.151560	10.001572	-8.694740	-0.000203	0.986962	-0.160956	0.684369	0.117496	0.719607	0.729136	-0.110007	-0.675469
01159														1.518339	9.826239	-8.796882	0.022804	0.988508	-0.149436	0.710136	0.089196	0.698391	0.703695	-0.122046	-0.699942
01160														1.987944	9.615005	-8.906716	0.045836	0.989318	-0.138382	0.734134	0.060585	0.676296	0.677455	-0.132590	-0.723515
01161														2.351143	9.942359	-9.555514	0.069279	0.989379	-0.127790	0.756176	0.031472	0.653611	0.650691	-0.141913	-0.745964
01162														2.604713	10.559748	-10.336601	0.093307	0.988663	-0.117641	0.776715	0.001642	0.629849	0.622902	-0.150143	-0.767757
01163														2.569382	10.940770	-10.886598	0.118039	0.987092	-0.108238	0.795902	-0.028865	0.604737	0.593807	-0.157530	-0.789036
01164														2.209878	11.295561	-11.248630	0.143379	0.984686	-0.099174	0.813901	-0.060311	0.577865	0.563035	-0.163572	-0.810084
01165														1.704731	11.869566	-11.663232	0.169055	0.981493	-0.089960	0.830563	-0.092725	0.549151	0.530646	-0.167554	-0.830867
01166														1.313910	11.986419	-11.643447	0.194775	0.977552	-0.080345	0.846013	-0.125987	0.518063	0.496311	-0.168879	-0.851560
01167														0.911026	11.686648	-11.177696	0.220465	0.972805	-0.071039	0.859792	-0.159427	0.485119	0.460600	-0.168030	-0.871558
01168														-0.508692	11.685821	-10.323266	0.246026	0.967262	-0.062244	0.871798	-0.192765	0.450345	0.423603	-0.165061	-0.890682
01169														-1.483843	10.798840	-9.636563	0.271240	0.961030	-0.053388	0.881547	-0.225774	0.414609	0.386398	-0.159522	-0.908432
01170														-1.995660	10.124669	-9.062027	0.295420	0.954266	-0.045870	0.889090	-0.257037	0.378749	0.349637	-0.152672	-0.924362
01171														-2.296828	9.711688	-8.702661	0.318377	0.947087	-0.040775	0.894479	-0.285892	0.343762	0.313916	-0.145919	-0.938171
01172														-2.826029	9.611320	-8.477672	0.339403	0.939858	-0.038365	0.898313	-0.311764	0.309574	0.278995	-0.139534	-0.950101
01173														-3.758930	9.768567	-8.547388	0.357885	0.933005	-0.037673	0.901012	-0.334458	0.276254	0.245146	-0.132811	-0.960346
01174														-4.503403	10.452451	-8.976839	0.373566	0.926877	-0.036699	0.903063	-0.354358	0.242709	0.211957	-0.123810	-0.969405
01175														-4.856061	10.652660	-8.720583	0.386405	0.921689	-0.034361	0.904691	-0.371501	0.208615	0.179513	-0.111696	-0.977394
01176														-4.903313	10.347354	-7.751395	0.396301	0.917601	-0.030894	0.906172	-0.385511	0.173877	0.147640	-0.096903	-0.984283
01177														-5.190865	9.276350	-6.310902	0.403223	0.914707	-0.026897	0.907595	-0.395985	0.139522	0.116971	-0.080670	-0.989854
01178														-6.026802	8.772283	-5.428403	0.407082	0.913127	-0.021968	0.909077	-0.402708	0.106793	0.088669	-0.063445	-0.994039
01179														-6.424192	8.716447	-4.820896	0.407888	0.912897	-0.015676	0.910845	-0.405663	0.076152	0.063160	-0.045340	-0.996973
01180														-6.135896	8.578467	-4.451130	0.405565	0.914027	-0.008509	0.913190	-0.404751	0.047552	0.040020	-0.027056	-0.998833
01181														-5.292594	7.687722	-4.120842	0.400176	0.916437	-0.001684	0.916244	-0.400053	0.021343	0.018885	-0.010084	-0.999771
01182														-4.507405	7.711385	-4.663877	0.392002	0.919955	0.004219	0.919964	-0.391994	-0.002511	-0.000656	0.004866	-0.999988
01183														-3.404864	7.953229	-5.131319	0.381402	0.924366	0.008892	0.924196	-0.381090	-0.025146	-0.019856	0.017809	-0.999644
01184														-1.257479	6.605497	-4.036570	0.367913	0.929783	0.011985	0.929017	-0.367000	-0.047305	-0.039585	0.028538	-0.998809
01185														-0.758051	5.644668	-3.415623	0.350508	0.936446	0.014614	0.934777	-0.348835	-0.067133	-0.057769	0.037191	-0.997637
01186														-1.690868	4.982686	-2.856913	0.332328	0.942895	0.022500	0.940419	-0.329448	-0.084120	-0.071904	0.049115	-0.996202
01187														-0.363945	4.515637	-2.862863	0.317395	0.947511	0.038514	0.944851	-0.312524	-0.097906	-0.080731	0.067465	-0.994450
01188														2.522566	5.166738	-3.695410	0.306039	0.950280	0.057511	0.948112	-0.298760	-0.108746	-0.086157	0.087807	-0.992405
01189														4.685213	6.346776	-4.582871	0.297358	0.952032	0.072203	0.950408	-0.287937	-0.117545	-0.091117	0.103575	-0.990439
01190														4.692379	6.897093	-4.312753	0.291016	0.953440	0.079132	0.951805	-0.280157	-0.124815	-0.096834	0.111642	-0.989019
01191														3.077172	8.018785	-3.510203	0.287415	0.954436	0.080275	0.952306	-0.275791	-0.130583	-0.102494	0.113978	-0.988182
01192														1.539413	7.927553	-1.929186	0.286325	0.954844	0.079319	0.952177	-0.274353	-0.134500	-0.106665	0.114036	-0.987734
01193														0.918091	8.484806	-0.862979	0.286890	0.954659	0.079505	0.951947	-0.274818	-0.135172	-0.107194	0.114464	-0.987627
01194														1.628199	9.604023	-1.016359	0.288673	0.953958	0.081440	0.951804	-0.276732	-0.132242	-0.103616	0.115690	-0.987866
01195														11.878188	-2.150494	4.486116	0.290935	0.953487	0.078858	0.952217	-0.280565	-0.120690	-0.092952	0.110203	-0.989553
01196														2.802886	1.180993	-6.693252	0.296260	0.953563	0.054298	0.952174	-0.290421	-0.094979	-0.074799	0.079840	-0.993997
01197														-2.169328	-7.676478	-10.994387	0.305991	0.950716	0.050084	0.950606	-0.302228	-0.070749	-0.052126	0.069258	-0.996236
01198														-0.121381	-3.813399	-4.513233	0.320639	0.946238	0.042715	0.946902	-0.319076	-0.039596	-0.023838	0.053142	-0.998302
01199														-6.097520	5.772864	-9.014940	0.331516	0.942661	0.038581	0.943403	-0.331627	-0.003665	0.009340	0.037612	-0.999249
01200														-5.334371	10.548073	-13.694941	0.342007	0.938917	0.038288	0.938814	-0.343168	0.029404	0.040747	0.025889	-0.998834
01201														-9.758412	4.428218	-13.732149	0.346562	0.937345	0.035763	0.935468	-0.348180	0.060581	0.069238	0.012460	-0.997522
01202														-12.580883	1.619881	-12.809506	0.345660	0.937623	0.037173	0.933000	-0.347644	0.093027	0.100147	0.002527	-0.994969
01203														-5.110620	6.027598	-12.827200	0.343867	0.938092	0.041694	0.929556	-0.346353	0.126356	0.132975	-0.004693	-0.991108
01204														0.536502	5.387404	-11.019946	0.342693	0.938176	0.048857	0.924470	-0.346023	0.160076	0.167085	-0.009690	-0.985895
01205														2.593815	5.674665	-15.047182	0.342463	0.937881	0.055671	0.917669	-0.346614	0.194274	0.201502	-0.015444	-0.979366
01206														4.012912	7.338716	-11.541433	0.344336	0.936934	0.059889	0.909583	-0.348726	0.225939	0.232575	-0.023324	-0.972299
01207														2.735644	6.377186	-11.928324	0.346257	0.935983	0.063571	0.900583	-0.350613	0.256947	0.262787	-0.031719	-0.964332
01208														1.404223	7.916742	-12.863185	0.347839	0.935285	0.065190	0.891567	-0.351487	0.285597	0.290028	-0.041220	-0.956130
01209														2.223000	7.981597	-11.504963	0.348202	0.935115	0.065695	0.883029	-0.350717	0.311863	0.314668	-0.050580	-0.947853
01210														2.851496	6.785644	-11.542708	0.349186	0.934725	0.066022	0.874334	-0.350348	0.335853	0.337060	-0.059550	-0.939598
01211														6.036514	11.770805	-16.634424	0.351779	0.934058	0.061541	0.866392	-0.349777	0.356401	0.354425	-0.072056	-0.932304
01212														3.572393	9.483729	-10.014115	0.353959	0.933856	0.051244	0.860996	-0.346760	0.372080	0.365239	-0.087580	-0.926785
01213														-1.773350	5.728418	-11.248760	0.356221	0.933427	0.042665	0.855811	-0.344249	0.386110	0.375093	-0.101027	-0.921466
01214														-2.144674	5.336680	-9.412557	0.357321	0.933345	0.034469	0.851285	-0.340644	0.399093	0.384233	-0.113261	-0.916262
01215														0.508822	7.146704	-11.120816	0.358665	0.933049	0.027908	0.846917	-0.337837	0.410607	0.392545	-0.123635	-0.911385
01216														-0.147773	6.526211	-10.027908	0.359975	0.932742	0.020230	0.843633	-0.334691	0.419839	0.398373	-0.134065	-0.907373
01217														-1.242030	4.085685	-9.401983	0.361120	0.932423	0.013414	0.840452	-0.331666	0.428530	0.404020	-0.143477	-0.903428
01218														-1.661818	4.741337	-9.621805	0.361964	0.932160	0.007793	0.837299	-0.328780	0.436845	0.409772	-0.151597	-0.899503
01219														-0.948090	5.077885	-9.780493	0.362326	0.932045	0.003479	0.834365	-0.326013	0.444467	0.415397	-0.158139	-0.895789
01220														-1.408908	6.048638	-9.582341	0.362362	0.932037	0.001255	0.831773	-0.323987	0.450762	0.420533	-0.162295	-0.892643
01221														-0.165242	4.784255	-9.069526	0.362083	0.932146	-0.000058	0.829603	-0.322223	0.455995	0.425035	-0.165156	-0.889982
01222														-0.198327	4.586133	-8.922883	0.362040	0.932162	-0.000918	0.827370	-0.320885	0.460969	0.429403	-0.167649	-0.887416
01223														-0.176275	4.574418	-8.852832	0.361789	0.932258	-0.001732	0.825250	-0.319397	0.465776	0.433671	-0.169942	-0.884901
01224														0.039100	5.203143	-8.940727	0.361629	0.932319	-0.002412	0.823189	-0.318082	0.470302	0.437704	-0.172060	-0.882502
01225														0.195823	5.252400	-8.776829	0.361453	0.932385	-0.003172	0.821464	-0.316840	0.474140	0.441076	-0.173985	-0.880444
01226														-0.035791	4.935801	-8.733931	0.361355	0.932421	-0.003797	0.819844	-0.315781	0.477639	0.444161	-0.175710	-0.878548
01227														0.143816	5.094199	-8.806852	0.361214	0.932473	-0.004267	0.818323	-0.314795	0.480887	0.447071	-0.177196	-0.876772
01228														0.389324	5.814835	-8.791239	0.361169	0.932488	-0.004839	0.817090	-0.313964	0.483518	0.449355	-0.178586	-0.875321
01229														0.074095	5.134256	-8.601728	0.361059	0.932525	-0.005706	0.816206	-0.313051	0.485600	0.451048	-0.179988	-0.874163
01230														-0.231503	5.004646	-8.629918	0.360927	0.932573	-0.006290	0.815368	-0.312278	0.487502	0.452667	-0.181081	-0.873099
01231														-0.047332	4.881453	-8.568347	0.360820	0.932611	-0.006762	0.814536	-0.311589	0.489329	0.454247	-0.182068	-0.872073
01232														-0.018571	4.861632	-8.621959	0.360681	0.932662	-0.007182	0.813690	-0.310889	0.491179	0.455871	-0.183003	-0.871029
01233														-0.125275	4.901186	-8.575494	0.360637	0.932677	-0.007378	0.812749	-0.310364	0.493066	0.457582	-0.183814	-0.869961
01234														-0.004325	4.739354	-8.536440	0.360597	0.932692	-0.007421	0.811723	-0.309889	0.495051	0.459430	-0.184537	-0.868832
01235														0.074552	4.733933	-8.563380	0.360533	0.932716	-0.007494	0.810677	-0.309366	0.497088	0.461323	-0.185292	-0.867668
01236														0.182408	4.673724	-8.523747	0.360491	0.932732	-0.007523	0.809505	-0.308837	0.499321	0.463410	-0.186090	-0.866384
01237														0.129307	4.730920	-8.549243	0.360392	0.932769	-0.007685	0.808290	-0.308164	0.501699	0.465601	-0.187020	-0.865008
01238														-0.021758	4.924515	-8.487220	0.360311	0.932800	-0.007823	0.806991	-0.307487	0.504200	0.467912	-0.187982	-0.863551
01239														-0.045909	5.119049	-8.488389	0.360199	0.932842	-0.007961	0.805695	-0.306779	0.506697	0.470226	-0.188926	-0.862087
01240														-0.109357	5.235996	-8.474782	0.360091	0.932882	-0.008063	0.804400	-0.306096	0.509162	0.472520	-0.189831	-0.860633
01241														-0.046739	5.340173	-8.472597	0.359996	0.932919	-0.008131	0.803140	-0.305458	0.511528	0.474731	-0.190678	-0.859228
01242														-0.047965	5.362612	-8.458406	0.359866	0.932967	-0.008291	0.801947	-0.304763	0.513810	0.476841	-0.191551	-0.857864
01243														-0.110155	5.279120	-8.427808	0.359733	0.933017	-0.008445	0.800849	-0.304105	0.515908	0.478783	-0.192352	-0.856602
01244														0.082275	5.147003	-8.416485	0.359550	0.933086	-0.008587	0.799768	-0.303412	0.517989	0.480723	-0.193110	-0.855344
01245														0.032289	5.141520	-8.378022	0.359316	0.933173	-0.008969	0.798757	-0.302561	0.520042	0.482575	-0.194024	-0.854094
01246														-0.017713	5.150039	-8.392208	0.359046	0.933273	-0.009338	0.797700	-0.301664	0.522182	0.484522	-0.194936	-0.852783
01247														0.020565	5.224950	-8.386804	0.358709	0.933398	-0.009763	0.796648	-0.300671	0.524355	0.486497	-0.195869	-0.851444
01248														-0.153518	5.208405	-8.330498	0.358389	0.933517	-0.010145	0.795548	-0.299699	0.526578	0.488529	-0.196791	-0.850066
01249														-0.233337	5.262404	-8.354918	0.358084	0.933631	-0.010431	0.794396	-0.298773	0.528838	0.490623	-0.197655	-0.848659
01250														-0.184068	5.267629	-8.333174	0.357903	0.933699	-0.010547	0.793115	-0.298015	0.531184	0.492823	-0.198477	-0.847191
01251														-0.104102	5.248861	-8.328516	0.357822	0.933730	-0.010539	0.791708	-0.297374	0.533636	0.495138	-0.199290	-0.845649
01252														-0.283822	5.165913	-8.357928	0.357757	0.933755	-0.010514	0.790187	-0.296713	0.536252	0.497609	-0.200156	-0.843992
01253														0.010241	4.911178	-8.437731	0.357504	0.933856	-0.010194	0.788390	-0.295929	0.539321	0.500631	-0.200846	-0.842039
01254														0.053318	5.316166	-8.333615	0.357154	0.933990	-0.010169	0.786418	-0.294813	0.542801	0.503973	-0.201860	-0.839800
01255														-0.052712	5.199928	-8.243724	0.356627	0.934192	-0.010118	0.784364	-0.293511	0.546466	0.507534	-0.202821	-0.837420
01256														-0.033558	5.303555	-8.279822	0.356016	0.934425	-0.010149	0.782150	-0.292021	0.550422	0.511364	-0.203897	-0.834825
01257														-0.148058	5.417160	-8.177281	0.355276	0.934706	-0.010192	0.779849	-0.290368	0.554546	0.515378	-0.204965	-0.832091
01258														-0.182837	5.372065	-8.188572	0.354468	0.935013	-0.010152	0.777381	-0.288640	0.558897	0.519646	-0.206003	-0.829175
01259														-0.067724	5.342692	-8.237466	0.353612	0.935338	-0.010040	0.774721	-0.286841	0.563498	0.524181	-0.207037	-0.826057
01260														0.007262	5.396619	-8.225810	0.352728	0.935672	-0.010076	0.771821	-0.284838	0.568471	0.529032	-0.208292	-0.822642
01261														0.002856	5.608327	-8.116771	0.351775	0.936028	-0.010258	0.768727	-0.282613	0.573749	0.534146	-0.209716	-0.818967
01262														-0.041042	5.606316	-8.076247	0.350690	0.936433	-0.010485	0.765511	-0.280196	0.579209	0.539453	-0.211150	-0.815111
01263														-0.122394	5.545001	-8.079378	0.349644	0.936822	-0.010697	0.762074	-0.277745	0.584894	0.544971	-0.212656	-0.811039
01264														-0.084623	5.660306	-8.018526	0.348637	0.937195	-0.010874	0.758376	-0.275261	0.590845	0.550743	-0.214237	-0.806712
01265														-0.086389	5.720246	-7.975861	0.347625	0.937568	-0.011071	0.754430	-0.272673	0.597063	0.556769	-0.215907	-0.802118
01266														-0.144603	5.845032	-7.967272	0.346671	0.937918	-0.011380	0.750264	-0.269988	0.603498	0.562959	-0.217753	-0.797283
01267														-0.147606	5.909946	-7.919187	0.345805	0.938234	-0.011683	0.745813	-0.267287	0.610181	0.569370	-0.219717	-0.792176
01268														-0.110798	6.012649	-7.818774	0.345059	0.938503	-0.012099	0.741113	-0.264530	0.617070	0.575922	-0.221892	-0.786815
01269														-0.163494	6.074140	-7.769405	0.344436	0.938725	-0.012592	0.736194	-0.261752	0.624102	0.582565	-0.224233	-0.781241
01270														-0.032835	6.235498	-7.732905	0.343910	0.938909	-0.013293	0.731136	-0.258869	0.631211	0.589209	-0.226799	-0.775497
01271														-0.029973	6.318954	-7.527755	0.343345	0.939103	-0.014130	0.725958	-0.255811	0.638393	0.595902	-0.229447	-0.769581
01272														-0.043066	6.329526	-7.612677	0.342725	0.939313	-0.015150	0.720647	-0.252527	0.645676	0.602666	-0.232207	-0.763461
01273														0.004056	6.291600	-7.467947	0.342100	0.939519	-0.016450	0.715236	-0.249000	0.653021	0.609429	-0.235164	-0.757162
01274														-0.009825	6.537189	-7.411712	0.341370	0.939758	-0.017912	0.709597	-0.245172	0.660578	0.616392	-0.238212	-0.750544
01275														0.064242	6.376063	-7.404755	0.340541	0.940024	-0.019640	0.703802	-0.241003	0.668266	0.623453	-0.241395	-0.743663
01276														0.013723	6.522251	-7.365623	0.339645	0.940306	-0.021588	0.697701	-0.236489	0.676229	0.630757	-0.244740	-0.736375
01277														-0.027257	6.427494	-7.318617	0.338607	0.940627	-0.023799	0.691159	-0.231482	0.684628	0.638470	-0.248269	-0.728504
01278														0.030355	6.526394	-7.332110	0.337617	0.940914	-0.026362	0.684009	-0.226003	0.693580	0.646642	-0.252196	-0.719897
01279														-0.058687	6.586985	-7.326992	0.336634	0.941178	-0.029352	0.676192	-0.219928	0.703133	0.655318	-0.256546	-0.710452
01280														0.054979	6.563295	-7.251261	0.335623	0.941425	-0.032813	0.667692	-0.213176	0.713262	0.664488	-0.261296	-0.700129
01281														-0.058337	6.831317	-7.125342	0.334723	0.941599	-0.036782	0.658385	-0.205763	0.724010	0.674158	-0.266560	-0.688808
01282														-0.099127	6.890430	-6.919463	0.333848	0.941728	-0.041147	0.648262	-0.197685	0.735307	0.684325	-0.272155	-0.676484
01283														-0.263737	6.988644	-6.810428	0.333173	0.941746	-0.045945	0.637311	-0.189022	0.747064	0.694860	-0.278183	-0.663162
01284														-0.254088	7.073542	-6.704804	0.332780	0.941620	-0.051085	0.625447	-0.179849	0.759257	0.705743	-0.284617	-0.648783
01285														-0.259143	7.302554	-6.721541	0.332637	0.941352	-0.056646	0.612548	-0.169999	0.771936	0.717034	-0.291473	-0.633171
01286														-0.158251	7.160294	-6.696852	0.332871	0.940883	-0.062738	0.598537	-0.159405	0.785076	0.728664	-0.298880	-0.616214
01287														-0.358617	7.462551	-6.418538	0.333241	0.940285	-0.069390	0.583359	-0.147807	0.798652	0.740704	-0.306623	-0.597779
01288														-0.272313	7.357514	-6.354270	0.333847	0.939519	-0.076488	0.566952	-0.135308	0.812562	0.753068	-0.314637	-0.577834
01289														-0.450199	7.465855	-6.281832	0.334814	0.938526	-0.084081	0.549032	-0.121785	0.826881	0.765809	-0.323014	-0.556056
01290														-0.386577	7.569986	-6.135081	0.335928	0.937381	-0.092031	0.529482	-0.107129	0.841530	0.778975	-0.331422	-0.532314
01291														-0.643824	7.698529	-6.082993	0.337300	0.936033	-0.100360	0.508165	-0.091295	0.856407	0.792463	-0.339865	-0.506453
01292														-0.677826	8.108575	-5.790860	0.339128	0.934409	-0.108956	0.484927	-0.074389	0.871385	0.806125	-0.348347	-0.478347
01293														-0.835493	8.254697	-6.075316	0.341627	0.932440	-0.117667	0.459747	-0.056604	0.886244	0.819709	-0.356862	-0.448024
01294														-1.126364	8.246886	-5.915891	0.345038	0.930052	-0.126299	0.432387	-0.038072	0.900884	0.833061	-0.365449	-0.415279
01295														-1.602487	8.810203	-5.446286	0.348992	0.927477	-0.134130	0.402448	-0.019073	0.915244	0.846310	-0.373393	-0.379917
01296														-1.515836	8.837917	-5.223169	0.353886	0.924569	-0.141200	0.369748	0.000372	0.929132	0.859099	-0.381015	-0.341725
01297														-1.731696	9.321879	-4.799991	0.359692	0.921311	-0.147676	0.334706	0.020335	0.942103	0.870973	-0.388295	-0.301054
01298														-1.687150	9.763264	-4.605458	0.365638	0.918014	-0.153487	0.297757	0.040870	0.953766	0.881844	-0.394436	-0.258402
01299														-2.118282	11.001437	-4.135927	0.369735	0.915594	-0.158065	0.260326	0.061224	0.963578	0.891923	-0.397417	-0.215716
01300														-1.600104	12.312864	-3.879658	0.370196	0.914906	-0.160941	0.223416	0.080478	0.971395	0.901687	-0.395564	-0.174612
01301														-1.533551	10.847093	-2.450527	0.367492	0.915526	-0.163591	0.186286	0.099873	0.977406	0.911179	-0.389664	-0.133847
01302														-1.859404	10.975352	-2.685997	0.360021	0.918056	-0.166007	0.148604	0.119236	0.981682	0.921033	-0.378096	-0.093500
01303														-0.834042	11.722569	-2.350156	0.347184	0.922408	-0.169195	0.111162	0.138667	0.984081	0.931185	-0.360465	-0.054394
01304														-0.381452	11.486847	-1.164964	0.330165	0.927739	-0.174046	0.072937	0.158761	0.984619	0.941101	-0.337781	-0.015249
01305														-1.174103	10.738566	-0.614436	0.306455	0.934676	-0.180186	0.033396	0.178620	0.983351	0.951299	-0.307371	0.023525
01306														-1.019848	10.831898	0.037473	0.273681	0.943155	-0.188568	-0.006905	0.197975	0.980183	0.961796	-0.266956	0.060695
01307														-0.127706	11.463206	-0.090964	0.232670	0.951633	-0.200646	-0.047361	0.217150	0.974989	0.971402	-0.217348	0.095595
01308														0.241083	13.345425	-1.045662	0.185650	0.958219	-0.217600	-0.086369	0.236506	0.967784	0.978813	-0.160875	0.126668
01309														0.600117	14.233705	-2.795785	0.135806	0.961235	-0.239965	-0.121247	0.256514	0.958905	0.983288	-0.101130	0.151383
01310														-0.284787	14.772876	-8.997351	0.083219	0.959918	-0.267642	-0.147132	0.277465	0.949403	0.985610	-0.039630	0.164325
01311														4.319953	26.036208	-17.049227	0.029161	0.954271	-0.297518	-0.157049	0.298322	0.941456	0.987160	0.019271	0.158566
01312														9.199930	18.352339	-14.344794	-0.021019	0.945982	-0.323536	-0.148175	0.317086	0.936750	0.988738	0.067630	0.133506
01313														11.650887	14.569752	-9.785159	-0.060562	0.937722	-0.342068	-0.127167	0.332656	0.934435	0.990031	0.100091	0.099101
01314														11.753413	10.547066	-5.248875	-0.090202	0.931968	-0.351141	-0.099416	0.342391	0.934283	0.990949	0.119183	0.061769
01315														11.760731	4.979612	-0.684953	-0.109935	0.930014	-0.350697	-0.072113	0.344443	0.936034	0.991319	0.128193	0.029200
01316														9.244030	1.928233	2.112091	-0.122330	0.931632	-0.342195	-0.050206	0.338535	0.939614	0.991219	0.132123	0.005360
01317														5.396190	2.039632	2.136576	-0.132382	0.935710	-0.326990	-0.034801	0.325302	0.944970	0.990588	0.136477	-0.010500
01318														2.259426	4.047436	0.141506	-0.143941	0.941033	-0.306166	-0.023483	0.306053	0.951725	0.989308	0.144182	-0.021955
01319														0.172395	6.603553	-2.234432	-0.156609	0.946531	-0.282049	-0.013102	0.283557	0.958866	0.987574	0.153862	-0.032006
01320														-1.839317	8.604865	-4.190791	-0.168506	0.951489	-0.257439	-0.001240	0.260969	0.965346	0.985700	0.162986	-0.042795
01321														-3.988350	9.899953	-5.448100	-0.179069	0.955480	-0.234504	0.013906	0.240791	0.970477	0.983738	0.170521	-0.056405
01322														-6.238631	9.955092	-5.403223	-0.189038	0.958275	-0.214416	0.033034	0.224436	0.973929	0.981414	0.177027	-0.074083
01323														-8.584310	9.437090	-4.659329	-0.201651	0.959614	-0.196158	0.055946	0.211230	0.975834	0.977858	0.185804	-0.096281
01324														-9.977851	9.379530	-4.086498	-0.219406	0.959065	-0.179040	0.082243	0.201040	0.976125	0.972161	0.199443	-0.122985
01325														-10.067482	8.811248	-3.347439	-0.242070	0.956495	-0.162850	0.111221	0.194090	0.974658	0.963863	0.217824	-0.153366
01326														-9.399213	7.903409	-2.474870	-0.267831	0.952095	-0.147586	0.141705	0.190444	0.971417	0.952988	0.239262	-0.185923
01327														-8.438663	7.068420	-1.850743	-0.294467	0.946319	-0.133300	0.171935	0.189669	0.966677	0.940068	0.261735	-0.218557
01328														-7.817117	7.055324	-2.115720	-0.320701	0.939545	-0.120026	0.200874	0.191301	0.960757	0.925635	0.284006	-0.250081
01329														-7.568236	8.312908	-3.691571	-0.346444	0.931823	-0.108085	0.228881	0.195705	0.953579	0.909720	0.305623	-0.281077
01330														-7.301223	8.614363	-4.406478	-0.371706	0.923160	-0.098033	0.257269	0.203897	0.944584	0.891990	0.325887	-0.313291
01331														-7.005256	7.843336	-3.884429	-0.396609	0.913590	-0.089749	0.285770	0.215782	0.933688	0.872374	0.344662	-0.346658
01332														-6.520549	6.863061	-2.858707	-0.421415	0.903121	-0.082355	0.313181	0.230157	0.921383	0.851074	0.362493	-0.379831
01333														-6.093850	5.729577	-1.841813	-0.445499	0.892053	-0.075981	0.337803	0.246082	0.908478	0.829108	0.379059	-0.410968
01334														-5.806678	5.331546	-1.702243	-0.468766	0.880473	-0.070900	0.358425	0.262957	0.895760	0.807335	0.394489	-0.438848
01335														-5.811615	6.269445	-3.024505	-0.491235	0.868440	-0.067082	0.375358	0.280559	0.883398	0.785999	0.408776	-0.463797
01336														-5.780625	7.780262	-5.313550	-0.513217	0.855888	-0.063743	0.390557	0.299033	0.870657	0.764247	0.421941	-0.487743
01337														-5.561927	9.168946	-7.296063	-0.534672	0.842884	-0.060604	0.405903	0.319056	0.856415	0.741194	0.433302	-0.512719
01338														-4.999538	9.091426	-7.651400	-0.555167	0.829746	-0.057540	0.422479	0.340911	0.839816	0.716450	0.441928	-0.539813
01339														-4.456866	7.680529	-6.352493	-0.574372	0.816760	-0.054776	0.439164	0.363921	0.821399	0.690820	0.447733	-0.567717
01340														-4.362138	6.470062	-4.728810	-0.592163	0.804134	-0.052063	0.454395	0.386576	0.802549	0.665483	0.451583	-0.594310
01341														-4.939031	5.810040	-3.999656	-0.609048	0.791642	-0.048618	0.467316	0.407706	0.784469	0.640840	0.455059	-0.618260
01342														-5.743515	6.468751	-4.872329	-0.625635	0.778921	-0.043166	0.478276	0.426692	0.767585	0.616306	0.459583	-0.639492
01343														-5.934162	7.726181	-6.588410	-0.642019	0.765851	-0.035825	0.487979	0.444223	0.751361	0.591345	0.464906	-0.658918
01344														-5.830625	8.287703	-7.898247	-0.657831	0.752643	-0.028047	0.496683	0.461507	0.735063	0.566183	0.469617	-0.677419
01345														-5.657782	8.112985	-8.421057	-0.672957	0.739381	-0.021055	0.503913	0.479109	0.718698	0.541479	0.473043	-0.695004
01346														-5.419152	7.937789	-8.525237	-0.687404	0.726112	-0.015371	0.509250	0.496976	0.702623	0.517822	0.475158	-0.711396
01347														-4.896356	7.798107	-8.691365	-0.701202	0.712870	-0.011511	0.512447	0.515153	0.687034	0.495696	0.475851	-0.726534
01348														-4.150389	7.701732	-9.113211	-0.714245	0.699833	-0.009380	0.513868	0.533454	0.671838	0.475178	0.475037	-0.740639
01349														-3.193066	7.096069	-9.253757	-0.726222	0.687401	-0.009050	0.513958	0.551632	0.656924	0.456562	0.472421	-0.753903
01350														-2.442765	6.112483	-9.084504	-0.736966	0.675852	-0.010291	0.512975	0.569145	0.642597	0.440158	0.468293	-0.766135
01351														-2.045096	5.200006	-8.968515	-0.746450	0.665327	-0.012339	0.511265	0.585275	0.629334	0.425935	0.463458	-0.777037
01352														-2.120063	4.988221	-9.313049	-0.754772	0.655845	-0.013635	0.509738	0.599455	0.617107	0.412900	0.458824	-0.786761
01353														-1.981804	5.038060	-9.725391	-0.761918	0.647543	-0.013014	0.509349	0.611484	0.605517	0.400056	0.454725	-0.795726
01354														-1.555332	5.056576	-10.175347	-0.767758	0.640649	-0.010786	0.510409	0.621681	0.594134	0.387337	0.450646	-0.804294
01355														-1.326763	4.921853	-10.464630	-0.772168	0.635367	-0.008074	0.512601	0.630378	0.582979	0.375495	0.446018	-0.812447
01356														-1.680274	4.959532	-10.959112	-0.775339	0.631524	-0.005165	0.515870	0.638024	0.571667	0.364317	0.440571	-0.820469
01357														-2.091549	5.168009	-11.728466	-0.777597	0.628760	-0.001751	0.520327	0.645054	0.559612	0.352991	0.434242	-0.828753
01358														-2.449765	4.508615	-11.677875	-0.779158	0.626825	0.001868	0.525810	0.651966	0.546319	0.341228	0.426651	-0.837575
01359														-2.932259	3.474096	-11.027954	-0.780303	0.625376	0.005543	0.531731	0.658741	0.532281	0.329224	0.418288	-0.846550
01360														-3.533261	2.767065	-10.447354	-0.781342	0.624035	0.009200	0.537472	0.665319	0.518145	0.317220	0.409793	-0.855243
01361														-4.093922	2.531820	-10.351256	-0.782584	0.622408	0.013019	0.542646	0.671748	0.504272	0.305117	0.401700	-0.863447
01362														-4.331273	2.636507	-10.451091	-0.784156	0.620337	0.016780	0.547059	0.678256	0.490608	0.292961	0.393892	-0.871219
01363														-4.491707	2.693038	-10.603450	-0.786251	0.617584	0.019990	0.550341	0.685201	0.477100	0.280952	0.386121	-0.878622
01364														-4.513208	2.853535	-10.645408	-0.788986	0.614014	0.022087	0.552190	0.692864	0.463709	0.269421	0.378056	-0.885712
01365														-4.700793	3.004906	-10.634697	-0.792608	0.609306	0.022768	0.552178	0.701456	0.450622	0.258596	0.369738	-0.892425
01366														-5.064680	3.717340	-11.256666	-0.797312	0.603146	0.022555	0.550303	0.711092	0.437623	0.247912	0.361334	-0.898875
01367														-5.215875	4.909289	-12.336892	-0.803305	0.595156	0.022138	0.546700	0.722136	0.423839	0.236263	0.352575	-0.905467
01368														-5.232047	5.612397	-12.733040	-0.810579	0.585227	0.021727	0.541598	0.735003	0.407972	0.222787	0.342461	-0.912736
01369														-4.921587	5.200469	-11.861713	-0.819170	0.573155	0.021283	0.534673	0.749688	0.389991	0.207570	0.330849	-0.920573
01370														-4.760148	4.458438	-10.343624	-0.828922	0.558982	0.020672	0.525537	0.765604	0.371026	0.191570	0.318416	-0.928392
01371														-4.565629	4.054799	-9.289995	-0.839648	0.542743	0.020510	0.514078	0.781983	0.352458	0.175256	0.306484	-0.935603
01372														-4.164164	4.218147	-8.924117	-0.850993	0.524766	0.020786	0.500517	0.798411	0.334699	0.159043	0.295230	-0.942096
01373														-3.735539	4.435626	-8.864422	-0.862712	0.505251	0.021194	0.484972	0.814756	0.317764	0.143283	0.284417	-0.947933
01374														-3.519435	4.662203	-8.757078	-0.874603	0.484368	0.021413	0.467584	0.830972	0.301415	0.128202	0.273631	-0.953253
01375														-3.589576	4.955321	-8.586099	-0.886579	0.462072	0.021617	0.448394	0.846972	0.285624	0.113670	0.262921	-0.958098
01376														-3.821573	5.168259	-8.414335	-0.898476	0.438455	0.022312	0.427633	0.862536	0.270483	0.099350	0.252564	-0.962466
01377														-4.186299	6.124950	-8.853600	-0.910187	0.413467	0.024574	0.405557	0.877577	0.255698	0.084157	0.242699	-0.966444
01378														-4.100224	6.790247	-9.204427	-0.921599	0.387100	0.028440	0.382204	0.892290	0.240290	0.067640	0.232321	-0.970284
01379														-3.733406	6.531404	-8.670247	-0.932583	0.359410	0.033376	0.357437	0.906654	0.224094	0.050281	0.220916	-0.973996
01380														-3.340167	5.539033	-7.381153	-0.943035	0.330455	0.038518	0.331023	0.920407	0.208025	0.033291	0.208925	-0.977365
01381														-2.990547	4.894270	-6.368391	-0.952862	0.300254	0.043607	0.302904	0.933166	0.193522	0.017413	0.197608	-0.980126
01382														-2.690060	5.146412	-6.146901	-0.961986	0.268783	0.048368	0.273084	0.944791	0.181093	0.002977	0.187417	-0.982276
01383														-2.543224	5.828684	-6.211036	-0.970274	0.236085	0.053225	0.241778	0.955241	0.170467	-0.010598	0.178268	-0.983925
01384														-2.256434	6.090998	-6.425623	-0.977572	0.202330	0.058449	0.209250	0.964541	0.160855	-0.023831	0.169478	-0.985246
01385														-1.697929	5.837663	-6.276064	-0.983745	0.167776	0.064005	0.175777	0.972589	0.152225	-0.036711	0.161002	-0.986271
