// Start Time: Unknown
// Update Rate: 100.0Hz
// Filter Profile: human (46.1)
// Option Flags: AHS Disabled ICC Disabled 
// Firmware Version: 4.0.2
PacketCounter	SampleTimeFine	Year	Month	Day	Second	UTC_Nano	UTC_Year	UTC_Month	UTC_Day	UTC_Hour	UTC_Minute	UTC_Second	UTC_Valid	Acc_X	Acc_Y	Acc_Z	Mat[1][1]	Mat[2][1]	Mat[3][1]	Mat[1][2]	Mat[2][2]	Mat[3][2]	Mat[1][3]	Mat[2][3]	Mat[3][3]
00472														9.717161	-1.104842	-0.829422	0.057089	-0.129699	0.989909	-0.223078	-0.968114	-0.113978	0.973127	-0.214320	-0.084202
00473														9.714211	-1.079161	-0.829159	0.057024	-0.129471	0.989942	-0.223016	-0.968152	-0.113774	0.973145	-0.214285	-0.084082
00474														9.711922	-1.080300	-0.861756	0.056983	-0.129283	0.989969	-0.222988	-0.968179	-0.113602	0.973154	-0.214277	-0.083998
00475														9.695723	-1.053273	-0.809026	0.056973	-0.129126	0.989990	-0.222992	-0.968196	-0.113451	0.973154	-0.214296	-0.083955
00476														9.727504	-1.050212	-0.844767	0.056889	-0.128939	0.990019	-0.223066	-0.968199	-0.113279	0.973142	-0.214395	-0.083842
00477														9.687774	-1.032019	-0.876181	0.056859	-0.128797	0.990040	-0.223064	-0.968215	-0.113147	0.973144	-0.214408	-0.083781
00478														9.724685	-1.024085	-0.843330	0.056807	-0.128660	0.990060	-0.223072	-0.968227	-0.113024	0.973145	-0.214435	-0.083703
00479														9.712425	-1.048288	-0.821723	0.056777	-0.128518	0.990081	-0.223070	-0.968243	-0.112892	0.973148	-0.214448	-0.083642
00480														9.710060	-1.050098	-0.854678	0.056734	-0.128400	0.990098	-0.223037	-0.968263	-0.112788	0.973158	-0.214430	-0.083571
00481														9.735220	-1.093993	-0.834316	0.056688	-0.128236	0.990122	-0.222997	-0.968290	-0.112640	0.973170	-0.214409	-0.083487
00482														9.717123	-1.096636	-0.848442	0.056619	-0.128109	0.990143	-0.223012	-0.968299	-0.112530	0.973170	-0.214443	-0.083394
00483														9.735663	-1.092333	-0.831316	0.056603	-0.127980	0.990160	-0.223029	-0.968309	-0.112406	0.973167	-0.214472	-0.083352
00484														9.701749	-1.095821	-0.827418	0.056620	-0.127822	0.990180	-0.223002	-0.968334	-0.112250	0.973172	-0.214456	-0.083332
00485														9.721084	-1.117671	-0.843398	0.056619	-0.127623	0.990205	-0.222988	-0.968359	-0.112057	0.973175	-0.214460	-0.083285
00486														9.693076	-1.142424	-0.803372	0.056589	-0.127462	0.990228	-0.222984	-0.968377	-0.111906	0.973178	-0.214473	-0.083221
00487														9.696627	-1.165374	-0.800634	0.056587	-0.127295	0.990249	-0.223063	-0.968379	-0.111737	0.973160	-0.214565	-0.083192
00488														9.690256	-1.115729	-0.802568	0.056543	-0.127106	0.990276	-0.223208	-0.968367	-0.111549	0.973129	-0.214731	-0.083125
00489														9.720528	-1.058874	-0.772906	0.056510	-0.126916	0.990302	-0.223457	-0.968333	-0.111349	0.973074	-0.214998	-0.083081
00490														9.715754	-1.062617	-0.840286	0.056446	-0.126764	0.990326	-0.223668	-0.968302	-0.111196	0.973029	-0.215228	-0.083010
00491														9.715152	-1.034857	-0.806370	0.056446	-0.126633	0.990342	-0.223871	-0.968271	-0.111051	0.972983	-0.215441	-0.083004
00492														9.727851	-1.008410	-0.825518	0.056424	-0.126443	0.990368	-0.224076	-0.968247	-0.110852	0.972937	-0.215663	-0.082965
00493														9.737235	-1.052819	-0.787059	0.056408	-0.126299	0.990387	-0.224261	-0.968221	-0.110699	0.972895	-0.215861	-0.082939
00494														9.753254	-1.050591	-0.804682	0.056408	-0.126135	0.990408	-0.224409	-0.968207	-0.110527	0.972861	-0.216022	-0.082921
00495														9.713537	-1.032032	-0.836989	0.056448	-0.125952	0.990429	-0.224553	-0.968196	-0.110327	0.972826	-0.216176	-0.082936
00496														9.714599	-1.057238	-0.869144	0.056462	-0.125797	0.990448	-0.224687	-0.968184	-0.110161	0.972794	-0.216321	-0.082931
00497														9.718140	-1.080018	-0.867044	0.056515	-0.125633	0.990466	-0.224836	-0.968171	-0.109976	0.972756	-0.216477	-0.082963
00498														9.717510	-1.051845	-0.833508	0.056522	-0.125432	0.990491	-0.224953	-0.968167	-0.109768	0.972729	-0.216610	-0.082939
00499														9.701893	-1.051569	-0.814250	0.056563	-0.125314	0.990503	-0.225106	-0.968147	-0.109630	0.972691	-0.216767	-0.082971
00500														9.729477	-0.997629	-0.819435	0.056579	-0.125163	0.990522	-0.225273	-0.968127	-0.109466	0.972652	-0.216944	-0.082972
00501														9.713857	-0.997371	-0.800070	0.056584	-0.124995	0.990542	-0.225444	-0.968107	-0.109286	0.972612	-0.217128	-0.082959
00502														9.729860	-0.995228	-0.817802	0.056587	-0.124887	0.990556	-0.225582	-0.968088	-0.109168	0.972579	-0.217274	-0.082953
00503														9.723302	-0.946163	-0.819933	0.056590	-0.124776	0.990570	-0.225697	-0.968075	-0.109048	0.972553	-0.217397	-0.082944
00504														9.721007	-0.947886	-0.853195	0.056538	-0.124670	0.990586	-0.225797	-0.968063	-0.108948	0.972532	-0.217512	-0.082883
00505														9.707781	-0.945963	-0.799175	0.056534	-0.124582	0.990597	-0.225890	-0.968052	-0.108855	0.972511	-0.217612	-0.082870
00506														9.742885	-0.967909	-0.833845	0.056487	-0.124588	0.990599	-0.225970	-0.968032	-0.108864	0.972495	-0.217697	-0.082835
00507														9.730457	-0.993421	-0.812873	0.056478	-0.124560	0.990603	-0.225993	-0.968030	-0.108837	0.972490	-0.217722	-0.082822
00508														9.743000	-0.968516	-0.831792	0.056412	-0.124563	0.990607	-0.226027	-0.968020	-0.108851	0.972486	-0.217763	-0.082763
00509														9.724786	-0.972350	-0.846503	0.056401	-0.124540	0.990610	-0.226035	-0.968021	-0.108830	0.972485	-0.217775	-0.082747
00510														9.724838	-0.972628	-0.845577	0.056381	-0.124532	0.990612	-0.225994	-0.968030	-0.108831	0.972496	-0.217737	-0.082722
00511														9.731593	-1.021246	-0.841650	0.056349	-0.124515	0.990616	-0.225977	-0.968035	-0.108822	0.972501	-0.217725	-0.082685
00512														9.713370	-1.025227	-0.856327	0.056303	-0.124531	0.990617	-0.225902	-0.968049	-0.108855	0.972521	-0.217654	-0.082636
00513														9.707644	-1.004044	-0.891018	0.056281	-0.124523	0.990619	-0.225824	-0.968067	-0.108858	0.972541	-0.217579	-0.082604
00514														9.713466	-1.026180	-0.854099	0.056243	-0.124507	0.990623	-0.225751	-0.968084	-0.108857	0.972560	-0.217511	-0.082556
00515														9.729360	-1.025654	-0.871488	0.056211	-0.124528	0.990623	-0.225637	-0.968106	-0.108894	0.972588	-0.217400	-0.082516
00516														9.716887	-1.051653	-0.850137	0.056128	-0.124542	0.990626	-0.225504	-0.968132	-0.108937	0.972624	-0.217276	-0.082424
00517														9.738553	-1.072885	-0.831399	0.056088	-0.124517	0.990631	-0.225374	-0.968163	-0.108932	0.972656	-0.217153	-0.082366
00518														9.700213	-1.027234	-0.795955	0.056042	-0.124520	0.990633	-0.225247	-0.968190	-0.108957	0.972689	-0.217031	-0.082307
00519														9.750231	-1.022219	-0.815929	0.055998	-0.124527	0.990635	-0.225161	-0.968207	-0.108980	0.972711	-0.216950	-0.082256
00520														9.719486	-1.051567	-0.810494	0.055937	-0.124540	0.990637	-0.225088	-0.968221	-0.109012	0.972732	-0.216882	-0.082192
00521														9.716184	-1.028142	-0.810644	0.055888	-0.124557	0.990637	-0.224975	-0.968243	-0.109049	0.972760	-0.216774	-0.082136
00522														9.712881	-1.004688	-0.810886	0.055845	-0.124569	0.990638	-0.224914	-0.968254	-0.109075	0.972777	-0.216717	-0.082089
00523														9.728762	-1.004443	-0.828277	0.055806	-0.124617	0.990634	-0.224812	-0.968271	-0.109140	0.972803	-0.216616	-0.082051
00524														9.732118	-1.029365	-0.825530	0.055744	-0.124608	0.990639	-0.224666	-0.968303	-0.109156	0.972840	-0.216478	-0.081973
00525														9.728840	-1.005766	-0.825753	0.055730	-0.124609	0.990640	-0.224526	-0.968333	-0.109172	0.972873	-0.216340	-0.081944
00526														9.699033	-1.061644	-0.853347	0.055679	-0.124622	0.990641	-0.224372	-0.968365	-0.109209	0.972912	-0.216191	-0.081879
00527														9.735541	-1.055375	-0.820546	0.055678	-0.124633	0.990639	-0.224217	-0.968398	-0.109233	0.972947	-0.216036	-0.081863
00528														9.701445	-1.060525	-0.816756	0.055618	-0.124637	0.990642	-0.224123	-0.968417	-0.109257	0.972972	-0.215950	-0.081795
00529														9.707148	-1.082906	-0.779722	0.055588	-0.124657	0.990642	-0.224057	-0.968429	-0.109289	0.972990	-0.215884	-0.081763
00530														9.701487	-1.062034	-0.814287	0.055503	-0.124698	0.990641	-0.223982	-0.968439	-0.109354	0.973012	-0.215816	-0.081682
00531														9.700548	-1.036235	-0.780042	0.055451	-0.124700	0.990644	-0.223991	-0.968435	-0.109367	0.973012	-0.215831	-0.081633
00532														9.714125	-1.038329	-0.831628	0.055372	-0.124745	0.990642	-0.223997	-0.968427	-0.109428	0.973016	-0.215841	-0.081566
00533														9.719780	-1.061037	-0.794469	0.055295	-0.124795	0.990641	-0.224044	-0.968409	-0.109489	0.973009	-0.215893	-0.081508
00534														9.737993	-1.058594	-0.777450	0.055247	-0.124857	0.990635	-0.224067	-0.968396	-0.109558	0.973007	-0.215916	-0.081477
00535														9.773080	-1.081424	-0.812137	0.055243	-0.124875	0.990633	-0.224106	-0.968385	-0.109573	0.972998	-0.215954	-0.081481
00536														9.741274	-1.084134	-0.774370	0.055219	-0.124899	0.990632	-0.224110	-0.968381	-0.109601	0.972998	-0.215959	-0.081464
00537														9.741270	-1.084640	-0.773714	0.055237	-0.124906	0.990630	-0.224189	-0.968363	-0.109598	0.972979	-0.216034	-0.081492
00538														9.701510	-1.067746	-0.806513	0.055258	-0.124918	0.990627	-0.224291	-0.968340	-0.109597	0.972954	-0.216133	-0.081527
00539														9.723023	-1.088838	-0.788804	0.055275	-0.124935	0.990624	-0.224389	-0.968317	-0.109601	0.972931	-0.216227	-0.081558
00540														9.723008	-1.089296	-0.788348	0.055278	-0.124957	0.990621	-0.224499	-0.968290	-0.109613	0.972905	-0.216335	-0.081577
00541														9.704794	-1.092958	-0.803803	0.055308	-0.124931	0.990623	-0.224626	-0.968265	-0.109570	0.972874	-0.216460	-0.081615
00542														9.720726	-1.091952	-0.821934	0.055321	-0.124928	0.990622	-0.224804	-0.968226	-0.109550	0.972832	-0.216635	-0.081648
00543														9.701532	-1.069014	-0.804556	0.055350	-0.124921	0.990622	-0.224971	-0.968191	-0.109523	0.972792	-0.216799	-0.081693
00544														9.738965	-1.088738	-0.805557	0.055398	-0.124913	0.990620	-0.225140	-0.968155	-0.109489	0.972750	-0.216963	-0.081757
00545														9.719780	-1.065490	-0.788489	0.055471	-0.124862	0.990622	-0.225313	-0.968124	-0.109409	0.972706	-0.217131	-0.081836
00546														9.714180	-1.043589	-0.824364	0.055531	-0.124880	0.990617	-0.225508	-0.968080	-0.109397	0.972657	-0.217317	-0.081920
00547														9.710871	-1.019453	-0.825944	0.055627	-0.124848	0.990615	-0.225605	-0.968064	-0.109337	0.972629	-0.217406	-0.082017
00548														9.734682	-1.037667	-0.774673	0.055756	-0.124823	0.990611	-0.225692	-0.968051	-0.109277	0.972602	-0.217480	-0.082146
00549														9.741667	-0.990295	-0.831075	0.055931	-0.124792	0.990605	-0.225745	-0.968046	-0.109204	0.972580	-0.217516	-0.082315
00550														9.739322	-0.992369	-0.866109	0.056052	-0.124768	0.990601	-0.225738	-0.968054	-0.109155	0.972574	-0.217498	-0.082426
00551														9.764104	-1.037125	-0.847922	0.056201	-0.124740	0.990597	-0.225684	-0.968072	-0.109099	0.972578	-0.217430	-0.082558
00552														9.729911	-1.041564	-0.846099	0.056379	-0.124742	0.990586	-0.225646	-0.968085	-0.109066	0.972577	-0.217372	-0.082728
00553														9.735430	-1.063464	-0.811369	0.056572	-0.124748	0.990574	-0.225615	-0.968096	-0.109033	0.972573	-0.217320	-0.082912
00554														9.718449	-1.038241	-0.761013	0.056763	-0.124768	0.990561	-0.225581	-0.968106	-0.109013	0.972569	-0.217264	-0.083098
00555														9.747850	-1.038463	-0.833186	0.056893	-0.124768	0.990553	-0.225574	-0.968111	-0.108986	0.972563	-0.217243	-0.083223
00556														9.709422	-0.992405	-0.799361	0.056997	-0.124750	0.990550	-0.225587	-0.968112	-0.108943	0.972554	-0.217246	-0.083321
00557														9.703759	-0.970573	-0.835577	0.057142	-0.124753	0.990541	-0.225580	-0.968117	-0.108916	0.972547	-0.217223	-0.083462
00558														9.725193	-0.991636	-0.818999	0.057280	-0.124798	0.990527	-0.225581	-0.968115	-0.108930	0.972539	-0.217205	-0.083605
00559														9.740969	-0.991067	-0.838306	0.057443	-0.124853	0.990511	-0.225543	-0.968122	-0.108951	0.972538	-0.217144	-0.083771
00560														9.719331	-0.970803	-0.856300	0.057578	-0.124880	0.990500	-0.225458	-0.968141	-0.108956	0.972550	-0.217043	-0.083899
00561														9.709886	-1.020872	-0.835720	0.057730	-0.124959	0.990481	-0.225352	-0.968160	-0.109009	0.972566	-0.216914	-0.084051
00562														9.725604	-1.020884	-0.854909	0.057855	-0.125076	0.990459	-0.225209	-0.968182	-0.109108	0.972591	-0.216747	-0.084183
00563														9.725414	-1.021942	-0.855803	0.058055	-0.125148	0.990438	-0.225059	-0.968212	-0.109148	0.972614	-0.216571	-0.084375
00564														9.719603	-1.001096	-0.892403	0.058179	-0.125252	0.990418	-0.224864	-0.968247	-0.109239	0.972652	-0.216354	-0.084497
00565														9.709150	-1.025368	-0.838762	0.058318	-0.125373	0.990394	-0.224728	-0.968268	-0.109339	0.972675	-0.216193	-0.084642
00566														9.714586	-1.048573	-0.803588	0.058428	-0.125485	0.990373	-0.224586	-0.968289	-0.109438	0.972701	-0.216030	-0.084758
00567														9.690515	-1.031510	-0.855751	0.058550	-0.125621	0.990349	-0.224490	-0.968299	-0.109552	0.972716	-0.215909	-0.084894
00568														9.748306	-1.047012	-0.807452	0.058676	-0.125760	0.990324	-0.224419	-0.968302	-0.109666	0.972725	-0.215813	-0.085039
00569														9.708308	-1.031249	-0.841290	0.058794	-0.125927	0.990296	-0.224368	-0.968298	-0.109809	0.972729	-0.215735	-0.085184
00570														9.697849	-1.055812	-0.787309	0.058828	-0.126047	0.990279	-0.224337	-0.968292	-0.109921	0.972734	-0.215690	-0.085239
00571														9.717731	-1.106522	-0.837712	0.058967	-0.126129	0.990260	-0.224298	-0.968295	-0.109975	0.972735	-0.215628	-0.085388
00572														9.696035	-1.086932	-0.855572	0.059063	-0.126264	0.990237	-0.224262	-0.968291	-0.110090	0.972737	-0.215570	-0.085507
00573														9.711733	-1.087082	-0.874634	0.059185	-0.126353	0.990218	-0.224244	-0.968288	-0.110151	0.972734	-0.215531	-0.085642
00574														9.680686	-1.116738	-0.871033	0.059260	-0.126451	0.990201	-0.224245	-0.968278	-0.110232	0.972729	-0.215515	-0.085737
00575														9.693177	-1.092556	-0.891200	0.059351	-0.126532	0.990185	-0.224229	-0.968275	-0.110292	0.972728	-0.215482	-0.085840
00576														9.690655	-1.095922	-0.925862	0.059426	-0.126640	0.990167	-0.224250	-0.968261	-0.110379	0.972718	-0.215485	-0.085938
00577														9.692923	-1.094554	-0.891508	0.059463	-0.126675	0.990160	-0.224272	-0.968253	-0.110404	0.972711	-0.215500	-0.085985
00578														9.691984	-1.068894	-0.858362	0.059512	-0.126747	0.990148	-0.224283	-0.968243	-0.110463	0.972705	-0.215499	-0.086049
00579														9.738690	-1.039981	-0.880878	0.059582	-0.126782	0.990140	-0.224284	-0.968241	-0.110482	0.972701	-0.215490	-0.086125
00580														9.706840	-1.042972	-0.843775	0.059622	-0.126865	0.990127	-0.224221	-0.968247	-0.110559	0.972713	-0.215415	-0.086175
00581														9.722648	-1.042823	-0.862021	0.059666	-0.126902	0.990119	-0.224115	-0.968267	-0.110595	0.972735	-0.215301	-0.086213
00582														9.719359	-1.019416	-0.863153	0.059726	-0.126947	0.990110	-0.223986	-0.968292	-0.110638	0.972761	-0.215163	-0.086267
00583														9.722549	-1.044067	-0.861630	0.059799	-0.126936	0.990107	-0.223888	-0.968317	-0.110620	0.972779	-0.215058	-0.086323
00584														9.691652	-1.072825	-0.857202	0.059813	-0.126913	0.990109	-0.223819	-0.968335	-0.110601	0.972794	-0.214990	-0.086325
00585														9.713118	-1.094099	-0.839575	0.059874	-0.126958	0.990099	-0.223745	-0.968348	-0.110638	0.972807	-0.214906	-0.086385
00586														9.732188	-1.117723	-0.856510	0.059919	-0.126961	0.990096	-0.223713	-0.968356	-0.110634	0.972811	-0.214869	-0.086426
00587														9.710701	-1.097199	-0.873455	0.059963	-0.126960	0.990094	-0.223704	-0.968359	-0.110624	0.972811	-0.214854	-0.086467
00588														9.709834	-1.071231	-0.839955	0.059954	-0.126988	0.990091	-0.223707	-0.968355	-0.110654	0.972811	-0.214856	-0.086465
00589														9.672438	-1.052202	-0.838127	0.059971	-0.127039	0.990083	-0.223722	-0.968346	-0.110699	0.972806	-0.214865	-0.086494
00590														9.706551	-1.048500	-0.840242	0.059966	-0.127067	0.990080	-0.223772	-0.968332	-0.110722	0.972795	-0.214913	-0.086501
00591														9.743885	-1.068968	-0.840940	0.059968	-0.127118	0.990073	-0.223822	-0.968315	-0.110768	0.972783	-0.214958	-0.086520
00592														9.738290	-1.047757	-0.876075	0.059962	-0.127142	0.990070	-0.223839	-0.968309	-0.110791	0.972780	-0.214973	-0.086521
00593														9.735067	-1.024025	-0.877020	0.060021	-0.127145	0.990066	-0.223827	-0.968312	-0.110782	0.972779	-0.214955	-0.086577
00594														9.720017	-1.051906	-0.891231	0.060045	-0.127163	0.990063	-0.223789	-0.968319	-0.110798	0.972786	-0.214912	-0.086600
00595														9.717631	-1.054904	-0.925093	0.060052	-0.127225	0.990054	-0.223730	-0.968326	-0.110862	0.972799	-0.214848	-0.086614
00596														9.673124	-1.083032	-0.867578	0.060045	-0.127235	0.990053	-0.223694	-0.968332	-0.110877	0.972808	-0.214811	-0.086605
00597														9.673140	-1.083482	-0.866845	0.060040	-0.127241	0.990053	-0.223726	-0.968324	-0.110881	0.972801	-0.214843	-0.086605
00598														9.704105	-1.055450	-0.869909	0.059986	-0.127261	0.990054	-0.223765	-0.968312	-0.110909	0.972795	-0.214887	-0.086562
00599														9.716831	-1.030728	-0.888845	0.059981	-0.127267	0.990053	-0.223799	-0.968304	-0.110913	0.972788	-0.214920	-0.086562
00600														9.741494	-1.076209	-0.869550	0.059975	-0.127282	0.990052	-0.223796	-0.968303	-0.110928	0.972789	-0.214916	-0.086560
00601														9.704133	-1.057012	-0.867692	0.059993	-0.127315	0.990046	-0.223771	-0.968305	-0.110959	0.972794	-0.214887	-0.086580
00602														9.723239	-1.080624	-0.884226	0.059990	-0.127315	0.990047	-0.223762	-0.968307	-0.110961	0.972796	-0.214878	-0.086577
00603														9.691460	-1.082994	-0.846515	0.059990	-0.127284	0.990051	-0.223763	-0.968310	-0.110930	0.972796	-0.214882	-0.086571
00604														9.744748	-1.101902	-0.865683	0.060021	-0.127287	0.990048	-0.223766	-0.968310	-0.110926	0.972793	-0.214881	-0.086602
00605														9.722453	-1.054849	-0.849502	0.060055	-0.127267	0.990049	-0.223797	-0.968306	-0.110897	0.972784	-0.214910	-0.086634
00606														9.698721	-1.036416	-0.900560	0.060052	-0.127268	0.990049	-0.223788	-0.968308	-0.110899	0.972786	-0.214901	-0.086630
00607														9.698751	-1.036634	-0.899995	0.060096	-0.127240	0.990050	-0.223719	-0.968327	-0.110869	0.972799	-0.214830	-0.086659
00608														9.713842	-1.009283	-0.884761	0.060092	-0.127205	0.990054	-0.223584	-0.968361	-0.110847	0.972830	-0.214700	-0.086632
00609														9.722573	-1.055644	-0.847131	0.060159	-0.127205	0.990050	-0.223459	-0.968390	-0.110843	0.972855	-0.214567	-0.086682
00610														9.709840	-1.081370	-0.826798	0.060147	-0.127224	0.990049	-0.223395	-0.968402	-0.110871	0.972870	-0.214504	-0.086668
00611														9.725779	-1.080768	-0.844434	0.060138	-0.127213	0.990051	-0.223342	-0.968415	-0.110867	0.972883	-0.214453	-0.086651
00612														9.744026	-1.077832	-0.827898	0.060167	-0.127221	0.990048	-0.223331	-0.968417	-0.110869	0.972884	-0.214438	-0.086679
00613														9.740841	-1.053933	-0.828828	0.060198	-0.127207	0.990048	-0.223349	-0.968415	-0.110847	0.972878	-0.214454	-0.086708
00614														9.704409	-1.060735	-0.860034	0.060183	-0.127202	0.990049	-0.223388	-0.968407	-0.110842	0.972870	-0.214494	-0.086697
00615														9.704437	-1.061121	-0.859244	0.060173	-0.127209	0.990049	-0.223375	-0.968409	-0.110852	0.972874	-0.214482	-0.086688
00616														9.718086	-1.062528	-0.911488	0.060208	-0.127189	0.990049	-0.223351	-0.968417	-0.110827	0.972877	-0.214456	-0.086714
00617														9.723596	-1.084625	-0.875358	0.060238	-0.127175	0.990049	-0.223370	-0.968415	-0.110805	0.972871	-0.214472	-0.086743
00618														9.701284	-1.037833	-0.859124	0.060257	-0.127221	0.990042	-0.223344	-0.968416	-0.110848	0.972876	-0.214440	-0.086768
00619														9.689425	-1.089972	-0.871754	0.060240	-0.127213	0.990044	-0.223405	-0.968403	-0.110839	0.972862	-0.214504	-0.086756
00620														9.704481	-1.062928	-0.856501	0.060239	-0.127239	0.990041	-0.223501	-0.968379	-0.110857	0.972840	-0.214597	-0.086772
00621														9.705380	-1.089651	-0.889015	0.060241	-0.127235	0.990042	-0.223607	-0.968356	-0.110842	0.972816	-0.214703	-0.086785
00622														9.738643	-1.059293	-0.858092	0.060272	-0.127260	0.990036	-0.223682	-0.968338	-0.110854	0.972797	-0.214771	-0.086830
00623														9.702153	-1.066364	-0.889786	0.060325	-0.127305	0.990027	-0.223735	-0.968322	-0.110881	0.972781	-0.214815	-0.086896
00624														9.704396	-1.064641	-0.855335	0.060388	-0.127307	0.990023	-0.223716	-0.968328	-0.110871	0.972782	-0.214789	-0.086956
00625														9.710739	-1.113184	-0.852555	0.060446	-0.127292	0.990022	-0.223667	-0.968342	-0.110849	0.972790	-0.214734	-0.087003
00626														9.729904	-1.136090	-0.869337	0.060480	-0.127212	0.990030	-0.223667	-0.968352	-0.110763	0.972787	-0.214738	-0.087019
00627														9.683075	-1.165336	-0.846503	0.060505	-0.127157	0.990035	-0.223702	-0.968351	-0.110700	0.972778	-0.214775	-0.087036
00628														9.733266	-1.159516	-0.866932	0.060525	-0.127077	0.990045	-0.223737	-0.968352	-0.110615	0.972769	-0.214814	-0.087041
00629														9.670585	-1.067713	-0.850465	0.060530	-0.126980	0.990057	-0.223822	-0.968344	-0.110511	0.972748	-0.214908	-0.087035
00630														9.708073	-1.086922	-0.850739	0.060491	-0.126883	0.990071	-0.223908	-0.968335	-0.110417	0.972731	-0.215005	-0.086986
00631														9.726444	-1.083063	-0.833772	0.060480	-0.126783	0.990085	-0.223993	-0.968328	-0.110314	0.972712	-0.215100	-0.086963
00632														9.705198	-1.061502	-0.850127	0.060475	-0.126689	0.990097	-0.224089	-0.968316	-0.110215	0.972690	-0.215205	-0.086948
00633														9.698975	-1.012620	-0.851771	0.060445	-0.126608	0.990110	-0.224200	-0.968300	-0.110132	0.972667	-0.215326	-0.086914
00634														9.709633	-0.989001	-0.904788	0.060403	-0.126525	0.990123	-0.224292	-0.968288	-0.110052	0.972648	-0.215429	-0.086866
00635														9.728008	-0.985172	-0.887652	0.060362	-0.126411	0.990140	-0.224392	-0.968278	-0.109940	0.972628	-0.215543	-0.086813
00636														9.691744	-0.991324	-0.918387	0.060321	-0.126380	0.990146	-0.224440	-0.968269	-0.109914	0.972619	-0.215598	-0.086772
00637														9.694079	-0.989292	-0.882912	0.060289	-0.126341	0.990153	-0.224441	-0.968273	-0.109883	0.972621	-0.215606	-0.086732
00638														9.730557	-0.983030	-0.849875	0.060239	-0.126330	0.990158	-0.224435	-0.968274	-0.109884	0.972625	-0.215607	-0.086681
00639														9.715619	-1.010703	-0.863367	0.060201	-0.126297	0.990164	-0.224379	-0.968289	-0.109865	0.972641	-0.215558	-0.086630
00640														9.731677	-1.009764	-0.880548	0.060150	-0.126264	0.990171	-0.224300	-0.968309	-0.109850	0.972662	-0.215488	-0.086565
00641														9.722188	-1.059328	-0.858141	0.060084	-0.126200	0.990184	-0.224221	-0.968332	-0.109810	0.972684	-0.215422	-0.086478
00642														9.707282	-1.086921	-0.871422	0.060030	-0.126190	0.990188	-0.224168	-0.968344	-0.109816	0.972700	-0.215376	-0.086418
00643														9.728731	-1.108059	-0.853014	0.060011	-0.126139	0.990196	-0.224086	-0.968367	-0.109777	0.972720	-0.215301	-0.086379
00644														9.707459	-1.087213	-0.869083	0.059962	-0.126109	0.990203	-0.224041	-0.968379	-0.109763	0.972733	-0.215264	-0.086320
00645														9.685205	-1.040263	-0.851983	0.059920	-0.126090	0.990207	-0.223988	-0.968392	-0.109758	0.972748	-0.215218	-0.086269
00646														9.690659	-1.062669	-0.815032	0.059853	-0.126071	0.990214	-0.223950	-0.968401	-0.109757	0.972761	-0.215189	-0.086195
00647														9.737725	-1.033132	-0.835864	0.059819	-0.126011	0.990224	-0.223880	-0.968422	-0.109712	0.972779	-0.215128	-0.086142
00648														9.710014	-1.085962	-0.829543	0.059750	-0.125987	0.990231	-0.223809	-0.968439	-0.109710	0.972800	-0.215067	-0.086062
00649														9.723928	-1.087042	-0.880908	0.059700	-0.125919	0.990243	-0.223707	-0.968467	-0.109663	0.972826	-0.214977	-0.085986
00650														9.711235	-1.112272	-0.859951	0.059673	-0.125866	0.990251	-0.223648	-0.968486	-0.109622	0.972841	-0.214927	-0.085942
00651														9.708197	-1.087860	-0.859984	0.059631	-0.125769	0.990266	-0.223581	-0.968510	-0.109542	0.972860	-0.214872	-0.085873
00652														9.708324	-1.087590	-0.858886	0.059636	-0.125714	0.990272	-0.223501	-0.968534	-0.109495	0.972878	-0.214797	-0.085857
00653														9.720249	-1.035691	-0.844604	0.059646	-0.125619	0.990284	-0.223459	-0.968554	-0.109403	0.972887	-0.214762	-0.085841
00654														9.705395	-1.062629	-0.858347	0.059627	-0.125533	0.990296	-0.223402	-0.968576	-0.109328	0.972901	-0.214715	-0.085797
00655														9.684190	-1.041381	-0.874446	0.059596	-0.125459	0.990307	-0.223330	-0.968599	-0.109269	0.972919	-0.214653	-0.085744
00656														9.735624	-1.007352	-0.826504	0.059555	-0.125397	0.990318	-0.223286	-0.968615	-0.109221	0.972932	-0.214619	-0.085686
00657														9.699414	-1.013742	-0.857310	0.059522	-0.125350	0.990325	-0.223267	-0.968623	-0.109183	0.972938	-0.214608	-0.085641
00658														9.717689	-1.010511	-0.839977	0.059447	-0.125293	0.990337	-0.223231	-0.968635	-0.109148	0.972951	-0.214585	-0.085552
00659														9.718857	-1.036824	-0.871509	0.059362	-0.125244	0.990348	-0.223187	-0.968649	-0.109122	0.972966	-0.214555	-0.085454
00660														9.723244	-1.032844	-0.801206	0.059297	-0.125220	0.990355	-0.223162	-0.968655	-0.109114	0.972976	-0.214540	-0.085383
00661														9.715874	-1.013171	-0.870004	0.059254	-0.125211	0.990359	-0.223129	-0.968662	-0.109118	0.972986	-0.214513	-0.085335
00662														9.703080	-1.038953	-0.849222	0.059213	-0.125218	0.990361	-0.223082	-0.968671	-0.109138	0.973000	-0.214469	-0.085292
00663														9.740474	-1.059200	-0.849186	0.059171	-0.125200	0.990365	-0.223031	-0.968683	-0.109134	0.973014	-0.214425	-0.085241
00664														9.706361	-1.064055	-0.845566	0.059109	-0.125214	0.990367	-0.222958	-0.968696	-0.109167	0.973034	-0.214357	-0.085176
00665														9.730936	-1.109408	-0.825671	0.059063	-0.125136	0.990380	-0.222883	-0.968720	-0.109107	0.973054	-0.214295	-0.085106
00666														9.712912	-1.112494	-0.840505	0.059038	-0.125091	0.990387	-0.222891	-0.968723	-0.109067	0.973054	-0.214309	-0.085073
00667														9.711950	-1.086250	-0.806179	0.058973	-0.125044	0.990397	-0.222894	-0.968726	-0.109036	0.973057	-0.214323	-0.085000
00668														9.706797	-1.064120	-0.840458	0.058905	-0.124986	0.990408	-0.222951	-0.968718	-0.108989	0.973048	-0.214393	-0.084929
00669														9.737913	-1.035502	-0.842838	0.058863	-0.124943	0.990416	-0.223048	-0.968700	-0.108947	0.973029	-0.214498	-0.084889
00670														9.700667	-1.015736	-0.840614	0.058806	-0.124917	0.990423	-0.223117	-0.968686	-0.108928	0.973016	-0.214575	-0.084836
00671														9.733841	-0.985262	-0.808680	0.058774	-0.124883	0.990429	-0.223153	-0.968681	-0.108899	0.973010	-0.214617	-0.084801
00672														9.715786	-0.988620	-0.823659	0.058730	-0.124866	0.990434	-0.223207	-0.968670	-0.108886	0.973000	-0.214677	-0.084761
00673														9.700900	-1.016181	-0.837383	0.058695	-0.124837	0.990440	-0.223231	-0.968668	-0.108864	0.972997	-0.214707	-0.084723
00674														9.717015	-1.015303	-0.854644	0.058644	-0.124834	0.990443	-0.223244	-0.968664	-0.108871	0.972997	-0.214726	-0.084675
00675														9.749178	-1.013398	-0.890190	0.058588	-0.124829	0.990447	-0.223280	-0.968655	-0.108875	0.972992	-0.214768	-0.084624
00676														9.740475	-1.035133	-0.800611	0.058535	-0.124841	0.990449	-0.223299	-0.968648	-0.108896	0.972991	-0.214792	-0.084576
00677														9.717159	-1.016764	-0.851257	0.058503	-0.124859	0.990448	-0.223292	-0.968647	-0.108921	0.972994	-0.214787	-0.084549
00678														9.720343	-1.041457	-0.849124	0.058484	-0.124864	0.990449	-0.223303	-0.968643	-0.108929	0.972993	-0.214800	-0.084533
00679														9.702258	-1.045092	-0.864280	0.058455	-0.124867	0.990450	-0.223290	-0.968645	-0.108940	0.972998	-0.214790	-0.084504
00680														9.683064	-1.022651	-0.846199	0.058415	-0.124897	0.990449	-0.223315	-0.968636	-0.108975	0.972994	-0.214816	-0.084474
00681														9.735375	-1.015706	-0.831464	0.058386	-0.124901	0.990450	-0.223300	-0.968638	-0.108987	0.972999	-0.214805	-0.084445
00682														9.720440	-1.043675	-0.845280	0.058342	-0.124931	0.990449	-0.223278	-0.968638	-0.109028	0.973007	-0.214785	-0.084406
00683														9.688330	-1.046570	-0.807565	0.058313	-0.124926	0.990451	-0.223245	-0.968645	-0.109032	0.973017	-0.214756	-0.084374
00684														9.736554	-1.043732	-0.861621	0.058280	-0.124970	0.990447	-0.223195	-0.968651	-0.109086	0.973030	-0.214706	-0.084345
00685														9.707552	-1.070971	-0.822853	0.058276	-0.124987	0.990445	-0.223119	-0.968666	-0.109111	0.973048	-0.214628	-0.084337
00686														9.702375	-1.049417	-0.857707	0.058264	-0.125007	0.990444	-0.223055	-0.968677	-0.109138	0.973063	-0.214565	-0.084323
00687														9.741745	-1.067699	-0.823586	0.058269	-0.124995	0.990445	-0.223014	-0.968688	-0.109129	0.973072	-0.214524	-0.084321
00688														9.708717	-1.098628	-0.853570	0.058227	-0.124999	0.990447	-0.222933	-0.968704	-0.109149	0.973093	-0.214448	-0.084271
00689														9.722597	-1.045362	-0.804723	0.058255	-0.124968	0.990449	-0.222911	-0.968713	-0.109114	0.973097	-0.214426	-0.084289
00690														9.706541	-1.046775	-0.785760	0.058248	-0.124978	0.990448	-0.222875	-0.968720	-0.109129	0.973105	-0.214390	-0.084280
00691														9.670372	-1.053491	-0.817060	0.058224	-0.124963	0.990452	-0.222866	-0.968723	-0.109120	0.973109	-0.214385	-0.084252
00692														9.633079	-1.034081	-0.815142	0.058199	-0.124987	0.990450	-0.222870	-0.968719	-0.109148	0.973109	-0.214389	-0.084235
00693														9.596917	-1.040913	-0.846310	0.058154	-0.124978	0.990454	-0.222838	-0.968725	-0.109152	0.973119	-0.214363	-0.084185
00694														9.531739	-1.074228	-0.839425	0.058097	-0.124990	0.990456	-0.222811	-0.968729	-0.109179	0.973129	-0.214342	-0.084129
00695														9.600159	-1.066208	-0.842485	0.057998	-0.124994	0.990461	-0.222761	-0.968737	-0.109208	0.973146	-0.214302	-0.084028
00696														9.859899	-1.086046	-0.906307	0.057802	-0.125018	0.990469	-0.222713	-0.968740	-0.109278	0.973169	-0.214274	-0.083838
00697														10.094182	-1.034670	-0.955165	0.057651	-0.125042	0.990475	-0.222711	-0.968734	-0.109334	0.973178	-0.214286	-0.083697
00698														10.082558	-0.910665	-0.890987	0.057625	-0.125093	0.990470	-0.222774	-0.968714	-0.109384	0.973165	-0.214348	-0.083690
00699														9.848797	-0.841689	-0.864016	0.057708	-0.125150	0.990458	-0.222858	-0.968691	-0.109415	0.973141	-0.214417	-0.083792
00700														9.748979	-0.825386	-0.755263	0.057706	-0.125241	0.990447	-0.222917	-0.968668	-0.109500	0.973128	-0.214469	-0.083816
00701														9.733114	-0.921803	-0.644533	0.057706	-0.125359	0.990432	-0.222978	-0.968642	-0.109609	0.973114	-0.214519	-0.083849
00702														9.768573	-1.039331	-0.588009	0.057780	-0.125544	0.990404	-0.223015	-0.968615	-0.109771	0.973101	-0.214532	-0.083965
00703														9.733577	-1.167500	-0.562377	0.057939	-0.125716	0.990373	-0.223149	-0.968570	-0.109894	0.973061	-0.214634	-0.084171
00704														9.696549	-1.297393	-0.571770	0.058103	-0.125888	0.990342	-0.223437	-0.968491	-0.110001	0.972985	-0.214887	-0.084400
00705														9.602174	-1.411715	-0.631257	0.058357	-0.125952	0.990318	-0.223844	-0.968400	-0.109974	0.972876	-0.215259	-0.084707
00706														9.609306	-1.486223	-0.664764	0.058621	-0.125994	0.990297	-0.224382	-0.968283	-0.109911	0.972737	-0.215761	-0.085032
00707														9.590213	-1.516801	-0.751049	0.058831	-0.125961	0.990289	-0.225014	-0.968152	-0.109778	0.972578	-0.216370	-0.085301
00708														9.581162	-1.496596	-0.857843	0.059103	-0.125784	0.990296	-0.225636	-0.968039	-0.109490	0.972417	-0.216975	-0.085595
00709														9.494594	-1.410938	-0.963351	0.059356	-0.125473	0.990320	-0.226179	-0.967959	-0.109083	0.972276	-0.217515	-0.085833
00710														9.463564	-1.341076	-1.053068	0.059554	-0.125065	0.990360	-0.226656	-0.967901	-0.108599	0.972152	-0.218004	-0.085989
00711														9.542769	-1.155941	-1.102546	0.059731	-0.124586	0.990409	-0.226986	-0.967884	-0.108063	0.972065	-0.218354	-0.086092
00712														9.590860	-0.998940	-1.148053	0.059893	-0.124066	0.990465	-0.227089	-0.967922	-0.107510	0.972030	-0.218485	-0.086146
00713														9.634301	-0.913796	-1.136595	0.059957	-0.123477	0.990534	-0.226919	-0.968025	-0.106936	0.972066	-0.218359	-0.086060
00714														9.664007	-0.881972	-1.172499	0.059957	-0.122901	0.990606	-0.226692	-0.968138	-0.106393	0.972119	-0.218184	-0.085907
00715														9.760492	-0.761805	-1.077958	0.059929	-0.122341	0.990677	-0.226483	-0.968244	-0.105870	0.972170	-0.218026	-0.085734
00716														9.845240	-0.571738	-1.020770	0.059840	-0.121913	0.990735	-0.226013	-0.968393	-0.105513	0.972285	-0.217605	-0.085503
00717														9.936153	-0.431382	-0.961232	0.059738	-0.121586	0.990782	-0.225351	-0.968573	-0.105273	0.972445	-0.216985	-0.085260
00718														9.933464	-0.323943	-0.791080	0.059660	-0.121367	0.990813	-0.224582	-0.968766	-0.105144	0.972627	-0.216246	-0.085053
00719														9.895614	-0.371893	-0.663304	0.059658	-0.121273	0.990825	-0.223774	-0.968955	-0.105123	0.972814	-0.215449	-0.084944
00720														9.816258	-0.527194	-0.579929	0.059674	-0.121343	0.990815	-0.222931	-0.969135	-0.105262	0.973006	-0.214602	-0.084883
00721														9.828858	-0.748022	-0.550555	0.059744	-0.121531	0.990788	-0.222180	-0.969282	-0.105496	0.973174	-0.213830	-0.084910
00722														9.843768	-1.021738	-0.587820	0.059797	-0.121765	0.990756	-0.221667	-0.969370	-0.105758	0.973287	-0.213294	-0.084957
00723														9.831548	-1.198513	-0.577538	0.059897	-0.122094	0.990710	-0.221510	-0.969372	-0.106072	0.973317	-0.213099	-0.085108
00724														9.798562	-1.286756	-0.710543	0.060012	-0.122455	0.990658	-0.221724	-0.969289	-0.106382	0.973261	-0.213269	-0.085320
00725														9.709583	-1.303929	-0.758651	0.060199	-0.122820	0.990602	-0.222154	-0.969160	-0.106661	0.973151	-0.213645	-0.085627
00726														9.666543	-1.264703	-0.795530	0.060351	-0.123127	0.990554	-0.222690	-0.969013	-0.106882	0.973020	-0.214136	-0.085900
00727														9.624829	-1.250730	-0.865184	0.060468	-0.123327	0.990522	-0.223237	-0.968873	-0.107004	0.972887	-0.214651	-0.086117
00728														9.607626	-1.281224	-0.915900	0.060553	-0.123471	0.990499	-0.223718	-0.968754	-0.107084	0.972771	-0.215108	-0.086284
00729														9.558308	-1.313502	-0.929886	0.060692	-0.123529	0.990483	-0.224125	-0.968661	-0.107074	0.972669	-0.215494	-0.086476
00730														9.575492	-1.338251	-0.982339	0.060753	-0.123510	0.990482	-0.224448	-0.968592	-0.107014	0.972590	-0.215810	-0.086566
00731														9.593623	-1.334525	-0.966621	0.060824	-0.123433	0.990487	-0.224860	-0.968511	-0.106886	0.972491	-0.216220	-0.086664
00732														9.639743	-1.277393	-0.955185	0.060875	-0.123278	0.990503	-0.225304	-0.968430	-0.106684	0.972385	-0.216670	-0.086729
00733														9.679651	-1.171192	-0.945704	0.060936	-0.123061	0.990527	-0.225802	-0.968344	-0.106414	0.972266	-0.217178	-0.086794
00734														9.635118	-1.074611	-0.913318	0.060978	-0.122826	0.990553	-0.226311	-0.968256	-0.106130	0.972145	-0.217701	-0.086839
00735														9.716334	-0.984020	-0.835647	0.061046	-0.122533	0.990585	-0.226668	-0.968209	-0.105797	0.972057	-0.218075	-0.086880
00736														9.707140	-0.908699	-0.838421	0.061110	-0.122261	0.990615	-0.226903	-0.968187	-0.105496	0.971998	-0.218327	-0.086907
00737														9.748696	-0.922580	-0.770200	0.061156	-0.122018	0.990642	-0.227126	-0.968164	-0.105228	0.971943	-0.218565	-0.086922
00738														9.726441	-0.873732	-0.753524	0.061195	-0.121875	0.990657	-0.227449	-0.968107	-0.105051	0.971865	-0.218896	-0.086964
00739														9.739493	-0.846850	-0.772800	0.061290	-0.121748	0.990667	-0.227788	-0.968046	-0.104876	0.971780	-0.219234	-0.087064
00740														9.703637	-0.729719	-0.828424	0.061316	-0.121697	0.990672	-0.228215	-0.967956	-0.104782	0.971678	-0.219661	-0.087124
00741														9.712690	-0.707142	-0.916404	0.061352	-0.121683	0.990671	-0.228582	-0.967875	-0.104727	0.971590	-0.220024	-0.087196
00742														9.770788	-0.653292	-0.991324	0.061376	-0.121693	0.990668	-0.228731	-0.967841	-0.104718	0.971553	-0.220169	-0.087237
00743														9.768831	-0.655511	-1.025396	0.061408	-0.121744	0.990660	-0.228599	-0.967866	-0.104772	0.971582	-0.220030	-0.087265
00744														9.771255	-0.708544	-1.091607	0.061374	-0.121853	0.990649	-0.228306	-0.967920	-0.104913	0.971653	-0.219732	-0.087225
00745														9.762927	-0.664137	-1.126855	0.061300	-0.122035	0.990631	-0.227831	-0.968006	-0.105150	0.971769	-0.219251	-0.087142
00746														9.775852	-0.641855	-1.144474	0.061146	-0.122281	0.990610	-0.227263	-0.968105	-0.105476	0.971912	-0.218680	-0.086985
00747														9.825680	-0.586751	-1.061230	0.060898	-0.122577	0.990589	-0.226626	-0.968210	-0.105875	0.972076	-0.218046	-0.086742
00748														9.858642	-0.561496	-1.027300	0.060672	-0.122971	0.990554	-0.225780	-0.968352	-0.106386	0.972287	-0.217193	-0.086516
00749														9.906716	-0.604464	-0.887116	0.060445	-0.123434	0.990510	-0.224825	-0.968510	-0.106973	0.972523	-0.216225	-0.086293
00750														9.878742	-0.758134	-0.789080	0.060259	-0.123960	0.990456	-0.223802	-0.968675	-0.107618	0.972770	-0.215181	-0.086114
00751														9.798224	-0.919480	-0.705309	0.060118	-0.124553	0.990390	-0.222825	-0.968822	-0.108315	0.973003	-0.214172	-0.085997
00752														9.752816	-1.196887	-0.565792	0.060055	-0.125177	0.990315	-0.221964	-0.968942	-0.109014	0.973204	-0.213268	-0.085975
00753														9.658565	-1.383425	-0.463864	0.060092	-0.125846	0.990228	-0.221352	-0.969002	-0.109716	0.973341	-0.212596	-0.086085
00754														9.609412	-1.541914	-0.418661	0.060135	-0.126494	0.990143	-0.221074	-0.968992	-0.110365	0.973401	-0.212258	-0.086235
00755														9.517980	-1.657064	-0.408630	0.060227	-0.127008	0.990072	-0.221170	-0.968916	-0.110840	0.973374	-0.212299	-0.086445
00756														9.523384	-1.764117	-0.509224	0.060392	-0.127470	0.990002	-0.221497	-0.968797	-0.111228	0.973289	-0.212566	-0.086742
00757														9.485572	-1.801590	-0.611706	0.060558	-0.127797	0.989950	-0.222015	-0.968651	-0.111466	0.973161	-0.213034	-0.087032
00758														9.524555	-1.781386	-0.773555	0.060720	-0.127964	0.989918	-0.222732	-0.968479	-0.111530	0.972987	-0.213714	-0.087308
00759														9.595004	-1.731065	-0.938473	0.060847	-0.127990	0.989907	-0.223593	-0.968290	-0.111451	0.972781	-0.214555	-0.087536
00760														9.612428	-1.511868	-1.073869	0.060962	-0.127841	0.989919	-0.224475	-0.968114	-0.111201	0.972571	-0.215433	-0.087715
00761														9.683179	-1.256590	-1.126761	0.061073	-0.127656	0.989936	-0.225349	-0.967944	-0.110917	0.972362	-0.216308	-0.087882
00762														9.706652	-1.030215	-1.157274	0.061170	-0.127347	0.989970	-0.225946	-0.967848	-0.110540	0.972217	-0.216918	-0.087977
00763														9.752116	-0.796923	-1.101841	0.061251	-0.126979	0.990012	-0.226284	-0.967815	-0.110132	0.972134	-0.217279	-0.088013
00764														9.797580	-0.712011	-1.055936	0.061333	-0.126644	0.990050	-0.226348	-0.967840	-0.109781	0.972114	-0.217362	-0.088026
00765														9.798728	-0.681351	-0.987360	0.061407	-0.126300	0.990090	-0.226205	-0.967912	-0.109441	0.972142	-0.217243	-0.088006
00766														9.842055	-0.693859	-0.884323	0.061458	-0.126066	0.990116	-0.225964	-0.967993	-0.109223	0.972195	-0.217018	-0.087978
00767														9.836878	-0.711169	-0.726760	0.061559	-0.125934	0.990127	-0.225729	-0.968063	-0.109094	0.972243	-0.216784	-0.088020
00768														9.833011	-0.808564	-0.704382	0.061677	-0.125871	0.990127	-0.225563	-0.968109	-0.109021	0.972274	-0.216612	-0.088102
00769														9.796809	-0.909001	-0.646059	0.061860	-0.125879	0.990115	-0.225531	-0.968120	-0.108992	0.972270	-0.216559	-0.088278
00770														9.762754	-1.061518	-0.655359	0.062080	-0.125924	0.990096	-0.225742	-0.968073	-0.108969	0.972207	-0.216742	-0.088525
00771														9.732533	-1.116006	-0.687923	0.062380	-0.126001	0.990067	-0.226151	-0.967981	-0.108942	0.972093	-0.217109	-0.088878
00772														9.695251	-1.149706	-0.791132	0.062706	-0.126119	0.990031	-0.226661	-0.967862	-0.108938	0.971953	-0.217570	-0.089277
00773														9.656797	-1.157525	-0.861191	0.063040	-0.126233	0.989996	-0.227206	-0.967736	-0.108927	0.971804	-0.218066	-0.089687
00774														9.637508	-1.187887	-0.948447	0.063336	-0.126299	0.989968	-0.227826	-0.967596	-0.108869	0.971640	-0.218645	-0.090058
00775														9.590180	-1.270219	-1.031301	0.063604	-0.126296	0.989951	-0.228460	-0.967461	-0.108748	0.971473	-0.219247	-0.090388
00776														9.604189	-1.269397	-1.086294	0.063803	-0.126243	0.989945	-0.228984	-0.967353	-0.108604	0.971337	-0.219752	-0.090628
00777														9.599167	-1.245211	-1.123214	0.063987	-0.126105	0.989951	-0.229404	-0.967278	-0.108389	0.971226	-0.220163	-0.090822
00778														9.632484	-1.212973	-1.092812	0.064144	-0.125856	0.989973	-0.229632	-0.967257	-0.108090	0.971162	-0.220396	-0.090944
00779														9.678936	-1.154561	-1.081295	0.064344	-0.125557	0.989998	-0.229741	-0.967270	-0.107743	0.971123	-0.220511	-0.091083
00780														9.728358	-1.066876	-0.967118	0.064525	-0.125174	0.990034	-0.229641	-0.967338	-0.107338	0.971134	-0.220426	-0.091162
00781														9.742694	-1.010371	-0.918311	0.064693	-0.124772	0.990074	-0.229444	-0.967431	-0.106926	0.971170	-0.220249	-0.091215
00782														9.712927	-1.007637	-0.847034	0.064864	-0.124314	0.990121	-0.229187	-0.967543	-0.106465	0.971219	-0.220017	-0.091250
00783														9.707175	-0.955079	-0.848608	0.065042	-0.123872	0.990164	-0.229007	-0.967635	-0.106011	0.971249	-0.219859	-0.091304
00784														9.738637	-0.922722	-0.851583	0.065205	-0.123491	0.990201	-0.228894	-0.967705	-0.105612	0.971265	-0.219765	-0.091365
00785														9.768906	-0.865149	-0.820957	0.065331	-0.123161	0.990234	-0.228831	-0.967758	-0.105268	0.971272	-0.219719	-0.091408
00786														9.759763	-0.789947	-0.823630	0.065481	-0.122931	0.990253	-0.228798	-0.967793	-0.105014	0.971269	-0.219691	-0.091498
00787														9.770887	-0.763920	-0.877369	0.065586	-0.122747	0.990268	-0.228909	-0.967790	-0.104800	0.971236	-0.219808	-0.091571
00788														9.747793	-0.742723	-0.928787	0.065671	-0.122620	0.990279	-0.229008	-0.967783	-0.104648	0.971207	-0.219910	-0.091637
00789														9.711680	-0.747860	-0.961011	0.065742	-0.122582	0.990279	-0.229120	-0.967764	-0.104584	0.971176	-0.220017	-0.091709
00790														9.721078	-0.820548	-0.958317	0.065788	-0.122620	0.990271	-0.229213	-0.967739	-0.104602	0.971150	-0.220102	-0.091772
00791														9.724162	-0.845412	-0.957351	0.065830	-0.122685	0.990260	-0.229257	-0.967724	-0.104653	0.971137	-0.220135	-0.091832
00792														9.712267	-0.897759	-0.971507	0.065840	-0.122782	0.990247	-0.229270	-0.967711	-0.104744	0.971134	-0.220137	-0.091864
00793														9.686224	-0.950352	-0.932852	0.065861	-0.122903	0.990231	-0.229214	-0.967711	-0.104862	0.971145	-0.220069	-0.091906
00794														9.714697	-1.047282	-0.947231	0.065843	-0.123030	0.990216	-0.229180	-0.967705	-0.104994	0.971155	-0.220025	-0.091913
00795														9.703574	-1.072889	-0.893242	0.065882	-0.123135	0.990201	-0.229089	-0.967715	-0.105097	0.971173	-0.219920	-0.091964
00796														9.686543	-1.102521	-0.942559	0.065885	-0.123169	0.990196	-0.229045	-0.967722	-0.105133	0.971184	-0.219872	-0.091970
00797														9.679772	-1.177180	-0.920946	0.065866	-0.123192	0.990195	-0.229039	-0.967720	-0.105160	0.971186	-0.219867	-0.091956
00798														9.704096	-1.223121	-0.902301	0.065864	-0.123183	0.990196	-0.229010	-0.967728	-0.105155	0.971193	-0.219839	-0.091948
00799														9.699102	-1.200265	-0.936819	0.065859	-0.123090	0.990208	-0.229047	-0.967729	-0.105062	0.971185	-0.219885	-0.091927
00800														9.665101	-1.203961	-0.933538	0.065790	-0.122981	0.990226	-0.229146	-0.967716	-0.104961	0.971166	-0.220001	-0.091846
00801														9.680279	-1.176038	-0.917069	0.065768	-0.122854	0.990243	-0.229299	-0.967695	-0.104827	0.971132	-0.220168	-0.091813
00802														9.684160	-1.076666	-0.937796	0.065736	-0.122698	0.990265	-0.229533	-0.967658	-0.104660	0.971079	-0.220418	-0.091773
00803														9.711256	-0.996815	-0.906467	0.065606	-0.122490	0.990299	-0.229780	-0.967620	-0.104462	0.971029	-0.220697	-0.091627
00804														9.724583	-0.969708	-0.923684	0.065511	-0.122319	0.990326	-0.230017	-0.967582	-0.104293	0.970979	-0.220960	-0.091523
00805														9.736682	-0.917189	-0.907479	0.065416	-0.122166	0.990352	-0.230228	-0.967548	-0.104145	0.970935	-0.221194	-0.091419
00806														9.736931	-0.916195	-0.905814	0.065325	-0.122041	0.990373	-0.230437	-0.967511	-0.104024	0.970892	-0.221423	-0.091326
00807														9.734026	-0.891302	-0.904948	0.065215	-0.121945	0.990392	-0.230629	-0.967475	-0.103936	0.970854	-0.221635	-0.091218
00808														9.752273	-0.887932	-0.887165	0.065143	-0.121858	0.990408	-0.230755	-0.967453	-0.103856	0.970829	-0.221776	-0.091142
00809														9.736283	-0.888928	-0.867746	0.065126	-0.121781	0.990418	-0.230917	-0.967424	-0.103770	0.970791	-0.221947	-0.091126
00810														9.739528	-0.912722	-0.866052	0.065110	-0.121716	0.990427	-0.230979	-0.967416	-0.103704	0.970778	-0.222015	-0.091102
00811														9.711702	-0.965196	-0.861477	0.065097	-0.121655	0.990435	-0.231017	-0.967414	-0.103643	0.970769	-0.222061	-0.091080
00812														9.737315	-1.036134	-0.876579	0.065119	-0.121609	0.990440	-0.230969	-0.967430	-0.103598	0.970779	-0.222015	-0.091086
00813														9.739267	-1.034480	-0.841885	0.065218	-0.121549	0.990441	-0.230942	-0.967445	-0.103520	0.970779	-0.221983	-0.091166
00814														9.687088	-1.041308	-0.855877	0.065252	-0.121490	0.990446	-0.231014	-0.967435	-0.103448	0.970760	-0.222056	-0.091193
00815														9.698290	-1.016695	-0.908792	0.065242	-0.121438	0.990453	-0.231116	-0.967417	-0.103390	0.970736	-0.222164	-0.091182
00816														9.677192	-0.995281	-0.925071	0.065235	-0.121422	0.990455	-0.231228	-0.967393	-0.103365	0.970710	-0.222278	-0.091184
00817														9.702099	-0.918142	-0.928558	0.065195	-0.121334	0.990468	-0.231274	-0.967391	-0.103284	0.970702	-0.222335	-0.091131
00818														9.735776	-0.940546	-0.997534	0.065150	-0.121304	0.990475	-0.231275	-0.967393	-0.103265	0.970705	-0.222344	-0.091080
00819														9.703576	-0.943617	-0.959913	0.065125	-0.121256	0.990483	-0.231190	-0.967416	-0.103232	0.970727	-0.222267	-0.091036
00820														9.726119	-0.990523	-0.975292	0.065062	-0.121197	0.990494	-0.231087	-0.967445	-0.103197	0.970755	-0.222176	-0.090951
00821														9.730006	-0.987774	-0.904998	0.065022	-0.121136	0.990504	-0.230987	-0.967473	-0.103157	0.970782	-0.222086	-0.090888
00822														9.697810	-0.990707	-0.867218	0.064977	-0.121076	0.990514	-0.230896	-0.967499	-0.103116	0.970806	-0.222006	-0.090821
00823														9.738383	-1.034752	-0.866292	0.064918	-0.121025	0.990524	-0.230798	-0.967525	-0.103088	0.970834	-0.221918	-0.090742
00824														9.707462	-1.063306	-0.861902	0.064828	-0.120956	0.990539	-0.230743	-0.967543	-0.103047	0.970853	-0.221880	-0.090633
00825														9.691445	-1.064610	-0.842192	0.064783	-0.120879	0.990551	-0.230762	-0.967545	-0.102980	0.970851	-0.221910	-0.090575
00826														9.707759	-1.062826	-0.859146	0.064720	-0.120811	0.990563	-0.230846	-0.967532	-0.102920	0.970835	-0.222007	-0.090507
00827														9.725906	-1.059826	-0.841635	0.064656	-0.120765	0.990573	-0.230941	-0.967513	-0.102880	0.970817	-0.222113	-0.090446
00828														9.701783	-1.013931	-0.858092	0.064589	-0.120659	0.990591	-0.231074	-0.967492	-0.102779	0.970790	-0.222262	-0.090370
00829														9.714995	-0.987673	-0.875894	0.064566	-0.120580	0.990602	-0.231156	-0.967481	-0.102699	0.970772	-0.222353	-0.090339
00830														9.726376	-0.962604	-0.928356	0.064562	-0.120450	0.990618	-0.231174	-0.967491	-0.102571	0.970768	-0.222382	-0.090308
00831														9.726567	-0.961712	-0.927277	0.064542	-0.120317	0.990635	-0.231132	-0.967513	-0.102450	0.970779	-0.222355	-0.090255
00832														9.679524	-0.991038	-0.905016	0.064497	-0.120195	0.990653	-0.231064	-0.967540	-0.102348	0.970798	-0.222303	-0.090176
00833														9.720176	-1.034506	-0.904085	0.064453	-0.120100	0.990667	-0.231040	-0.967555	-0.102267	0.970807	-0.222292	-0.090110
00834														9.679896	-0.989883	-0.902294	0.064410	-0.119974	0.990685	-0.230985	-0.967579	-0.102158	0.970823	-0.222254	-0.090034
00835														9.712947	-0.959163	-0.869359	0.064408	-0.119840	0.990702	-0.230958	-0.967599	-0.102030	0.970830	-0.222239	-0.089999
00836														9.709985	-0.934243	-0.868913	0.064349	-0.119740	0.990718	-0.230997	-0.967599	-0.101942	0.970824	-0.222293	-0.089923
00837														9.726373	-0.932151	-0.885614	0.064278	-0.119627	0.990736	-0.231001	-0.967608	-0.101847	0.970828	-0.222314	-0.089830
00838														9.744544	-0.928842	-0.867849	0.064213	-0.119546	0.990750	-0.231032	-0.967608	-0.101780	0.970825	-0.222359	-0.089752
00839														9.742910	-0.929828	-0.900988	0.064170	-0.119472	0.990762	-0.231078	-0.967604	-0.101713	0.970817	-0.222416	-0.089698
00840														9.764154	-0.951097	-0.882818	0.064126	-0.119445	0.990768	-0.231112	-0.967598	-0.101694	0.970811	-0.222457	-0.089654
00841														9.728675	-0.930130	-0.846088	0.064086	-0.119418	0.990774	-0.231130	-0.967596	-0.101674	0.970810	-0.222482	-0.089611
00842														9.695938	-0.960157	-0.876752	0.064041	-0.119388	0.990780	-0.231132	-0.967597	-0.101655	0.970813	-0.222491	-0.089560
00843														9.731593	-0.981352	-0.911362	0.064021	-0.119355	0.990785	-0.231179	-0.967589	-0.101623	0.970803	-0.222543	-0.089538
00844														9.734796	-1.005638	-0.909864	0.064025	-0.119340	0.990787	-0.231211	-0.967584	-0.101605	0.970795	-0.222575	-0.089542
00845														9.703799	-1.034208	-0.906627	0.064042	-0.119297	0.990791	-0.231268	-0.967575	-0.101553	0.970780	-0.222635	-0.089555
00846														9.703875	-1.034031	-0.906018	0.064051	-0.119245	0.990797	-0.231268	-0.967581	-0.101501	0.970779	-0.222638	-0.089552
00847														9.697685	-0.985449	-0.906697	0.064035	-0.119190	0.990804	-0.231290	-0.967581	-0.101448	0.970775	-0.222667	-0.089527
00848														9.684715	-1.011050	-0.886765	0.063997	-0.119136	0.990813	-0.231312	-0.967581	-0.101402	0.970772	-0.222698	-0.089480
00849														9.714146	-0.983487	-0.922793	0.063971	-0.119061	0.990824	-0.231370	-0.967575	-0.101329	0.970760	-0.222764	-0.089444
00850														9.729101	-0.956075	-0.906292	0.063969	-0.118982	0.990834	-0.231344	-0.967588	-0.101255	0.970767	-0.222746	-0.089421
00851														9.744039	-0.928666	-0.889909	0.063984	-0.118904	0.990842	-0.231272	-0.967613	-0.101182	0.970783	-0.222679	-0.089411
00852														9.732477	-0.979472	-0.903918	0.063995	-0.118814	0.990852	-0.231159	-0.967649	-0.101102	0.970809	-0.222575	-0.089390
00853														9.731174	-0.953719	-0.869323	0.064002	-0.118756	0.990859	-0.231034	-0.967683	-0.101056	0.970838	-0.222454	-0.089371
00854														9.718170	-0.979326	-0.849646	0.064023	-0.118697	0.990864	-0.230933	-0.967713	-0.101003	0.970861	-0.222357	-0.089367
00855														9.737920	-0.975219	-0.798213	0.064029	-0.118678	0.990866	-0.230917	-0.967719	-0.100984	0.970864	-0.222342	-0.089367
00856														9.720022	-0.978008	-0.813792	0.064027	-0.118622	0.990873	-0.230964	-0.967714	-0.100925	0.970853	-0.222394	-0.089357
00857														9.731482	-0.953140	-0.866496	0.064040	-0.118553	0.990880	-0.231122	-0.967685	-0.100840	0.970815	-0.222556	-0.089371
00858														9.729812	-0.954162	-0.900657	0.064097	-0.118543	0.990878	-0.231210	-0.967667	-0.100810	0.970790	-0.222640	-0.089433
00859														9.744635	-0.927179	-0.884921	0.064140	-0.118526	0.990877	-0.231255	-0.967659	-0.100780	0.970777	-0.222681	-0.089476
00860														9.723580	-0.905853	-0.901369	0.064127	-0.118495	0.990882	-0.231235	-0.967667	-0.100754	0.970782	-0.222665	-0.089454
00861														9.705676	-0.908821	-0.916963	0.064146	-0.118486	0.990882	-0.231204	-0.967675	-0.100744	0.970788	-0.222633	-0.089467
00862														9.702569	-0.884907	-0.917005	0.064140	-0.118479	0.990883	-0.231129	-0.967693	-0.100745	0.970807	-0.222560	-0.089452
00863														9.708886	-0.933758	-0.914798	0.064135	-0.118494	0.990881	-0.231071	-0.967705	-0.100767	0.970821	-0.222501	-0.089444
00864														9.723710	-0.907528	-0.898268	0.064082	-0.118546	0.990879	-0.230996	-0.967715	-0.100836	0.970842	-0.222427	-0.089396
00865														9.725420	-0.907205	-0.862797	0.064055	-0.118586	0.990876	-0.230948	-0.967722	-0.100885	0.970855	-0.222378	-0.089374
00866														9.713720	-0.959499	-0.876776	0.064011	-0.118677	0.990867	-0.230903	-0.967722	-0.100988	0.970869	-0.222330	-0.089348
00867														9.708867	-0.937649	-0.911012	0.063980	-0.118718	0.990865	-0.230810	-0.967738	-0.101044	0.970893	-0.222237	-0.089317
00868														9.733294	-0.957724	-0.824237	0.063964	-0.118819	0.990853	-0.230717	-0.967749	-0.101154	0.970916	-0.222137	-0.089315
00869														9.744659	-0.934518	-0.876897	0.063957	-0.118901	0.990844	-0.230625	-0.967761	-0.101244	0.970939	-0.222038	-0.089317
00870														9.737711	-1.010009	-0.855853	0.063926	-0.118998	0.990835	-0.230533	-0.967772	-0.101354	0.970962	-0.221941	-0.089298
00871														9.731403	-0.962825	-0.856625	0.063939	-0.119064	0.990826	-0.230444	-0.967786	-0.101424	0.970983	-0.221844	-0.089317
00872														9.729621	-0.965294	-0.890798	0.063974	-0.119184	0.990809	-0.230414	-0.967781	-0.101536	0.970987	-0.221801	-0.089374
00873														9.695322	-0.970904	-0.888647	0.063972	-0.119259	0.990800	-0.230384	-0.967780	-0.101613	0.970995	-0.221764	-0.089387
00874														9.706956	-0.920997	-0.873320	0.063988	-0.119377	0.990785	-0.230309	-0.967785	-0.101731	0.971012	-0.221677	-0.089420
00875														9.726226	-0.945077	-0.890339	0.063994	-0.119476	0.990773	-0.230213	-0.967797	-0.101836	0.971034	-0.221572	-0.089438
00876														9.730908	-0.969504	-0.854710	0.064005	-0.119595	0.990757	-0.230092	-0.967813	-0.101961	0.971062	-0.221439	-0.089463
00877														9.714513	-0.972642	-0.836258	0.064036	-0.119726	0.990740	-0.229970	-0.967828	-0.102093	0.971089	-0.221303	-0.089509
00878														9.717480	-0.998405	-0.835212	0.064048	-0.119836	0.990726	-0.229829	-0.967849	-0.102211	0.971121	-0.221151	-0.089530
00879														9.712600	-0.976896	-0.869948	0.064053	-0.119943	0.990712	-0.229753	-0.967855	-0.102322	0.971139	-0.221065	-0.089551
00880														9.688411	-0.932677	-0.886917	0.063979	-0.120040	0.990705	-0.229764	-0.967841	-0.102431	0.971141	-0.221075	-0.089502
00881														9.731051	-0.880998	-0.941368	0.063861	-0.120106	0.990705	-0.229725	-0.967840	-0.102526	0.971158	-0.221042	-0.089399
00882														9.769255	-0.779901	-0.962289	0.063703	-0.120208	0.990703	-0.229513	-0.967874	-0.102681	0.971219	-0.220838	-0.089245
00883														9.804861	-0.803322	-0.996219	0.063650	-0.120396	0.990683	-0.229126	-0.967941	-0.102911	0.971313	-0.220441	-0.089195
00884														9.755200	-0.906256	-0.851174	0.063703	-0.120578	0.990658	-0.228626	-0.968037	-0.103123	0.971428	-0.219921	-0.089234
00885														9.703565	-1.037049	-0.808907	0.063710	-0.120761	0.990635	-0.228123	-0.968132	-0.103347	0.971546	-0.219402	-0.089228
00886														9.697679	-1.139299	-0.821056	0.063616	-0.120957	0.990617	-0.227716	-0.968201	-0.103597	0.971647	-0.218989	-0.089137
00887														9.703806	-1.163672	-0.750277	0.063587	-0.121190	0.990591	-0.227572	-0.968208	-0.103844	0.971683	-0.218828	-0.089145
00888														9.719779	-1.164899	-0.768211	0.063602	-0.121446	0.990558	-0.227698	-0.968153	-0.104080	0.971652	-0.218929	-0.089229
00889														9.710107	-1.121452	-0.838674	0.063575	-0.121650	0.990535	-0.227956	-0.968073	-0.104261	0.971594	-0.219170	-0.089276
00890														9.751298	-1.045219	-0.860484	0.063512	-0.121842	0.990515	-0.228195	-0.967997	-0.104441	0.971542	-0.219398	-0.089283
00891														9.727105	-1.001458	-0.878267	0.063569	-0.122019	0.990490	-0.228402	-0.967933	-0.104582	0.971489	-0.219582	-0.089400
00892														9.701217	-0.958749	-0.931386	0.063714	-0.122205	0.990458	-0.228478	-0.967900	-0.104724	0.971462	-0.219626	-0.089590
00893														9.702612	-0.959151	-0.897928	0.063831	-0.122364	0.990431	-0.228497	-0.967882	-0.104852	0.971450	-0.219617	-0.089741
00894														9.691847	-1.037387	-0.947094	0.063907	-0.122511	0.990408	-0.228424	-0.967885	-0.104985	0.971462	-0.219524	-0.089839
00895														9.693312	-1.037806	-0.912773	0.063952	-0.122654	0.990387	-0.228324	-0.967893	-0.105125	0.971482	-0.219406	-0.089903
00896														9.714082	-1.060966	-0.895693	0.063996	-0.122793	0.990367	-0.228254	-0.967895	-0.105257	0.971496	-0.219319	-0.089969
00897														9.754404	-1.080245	-0.828176	0.064091	-0.122977	0.990338	-0.228302	-0.967867	-0.105412	0.971478	-0.219340	-0.090108
00898														9.702010	-1.088867	-0.843108	0.064128	-0.123122	0.990317	-0.228378	-0.967835	-0.105538	0.971458	-0.219399	-0.090184
00899														9.698815	-1.066262	-0.844081	0.064197	-0.123279	0.990293	-0.228430	-0.967809	-0.105672	0.971442	-0.219429	-0.090291
00900														9.698610	-1.067909	-0.844343	0.064233	-0.123433	0.990272	-0.228526	-0.967771	-0.105805	0.971417	-0.219506	-0.090370
00901														9.701407	-1.093680	-0.843825	0.064279	-0.123575	0.990251	-0.228686	-0.967721	-0.105919	0.971376	-0.219648	-0.090463
00902														9.699897	-1.069734	-0.810339	0.064309	-0.123729	0.990230	-0.228942	-0.967647	-0.106039	0.971314	-0.219886	-0.090555
00903														9.763505	-1.039922	-0.849634	0.064392	-0.123894	0.990204	-0.229232	-0.967566	-0.106155	0.971240	-0.220151	-0.090704
00904														9.741027	-0.994409	-0.834015	0.064550	-0.124061	0.990173	-0.229441	-0.967504	-0.106264	0.971180	-0.220327	-0.090917
00905														9.742050	-1.021174	-0.869378	0.064744	-0.124222	0.990140	-0.229631	-0.967449	-0.106360	0.971122	-0.220481	-0.091162
00906														9.767098	-0.945485	-0.875150	0.064988	-0.124354	0.990107	-0.229765	-0.967410	-0.106422	0.971074	-0.220575	-0.091442
00907														9.680432	-0.957386	-0.889571	0.065166	-0.124468	0.990081	-0.229807	-0.967393	-0.106490	0.971052	-0.220588	-0.091645
00908														9.687360	-1.032518	-0.923450	0.065357	-0.124643	0.990047	-0.229808	-0.967378	-0.106619	0.971039	-0.220552	-0.091869
00909														9.687075	-1.033878	-0.924918	0.065545	-0.124768	0.990019	-0.229796	-0.967372	-0.106700	0.971029	-0.220509	-0.092078
00910														9.706045	-1.057779	-0.943717	0.065715	-0.124898	0.989991	-0.229813	-0.967358	-0.106788	0.971014	-0.220496	-0.092273
00911														9.726727	-1.080489	-0.927863	0.065859	-0.125010	0.989967	-0.229856	-0.967340	-0.106861	0.970994	-0.220512	-0.092442
00912														9.736858	-1.031812	-0.948407	0.066007	-0.125164	0.989938	-0.229887	-0.967320	-0.106976	0.970976	-0.220512	-0.092623
00913														9.720822	-1.008060	-0.863120	0.066165	-0.125286	0.989912	-0.229904	-0.967307	-0.107058	0.970962	-0.220501	-0.092806
00914														9.701404	-0.986476	-0.846722	0.066306	-0.125415	0.989886	-0.229989	-0.967277	-0.107145	0.970932	-0.220559	-0.092980
00915														9.722060	-1.009452	-0.831069	0.066501	-0.125586	0.989851	-0.229997	-0.967262	-0.107268	0.970917	-0.220529	-0.093209
00916														9.718831	-0.986928	-0.833139	0.066655	-0.125782	0.989816	-0.230012	-0.967241	-0.107424	0.970902	-0.220509	-0.093403
00917														9.753981	-1.009842	-0.870190	0.066840	-0.125942	0.989783	-0.230084	-0.967212	-0.107532	0.970873	-0.220546	-0.093626
00918														9.753688	-1.011322	-0.871749	0.067022	-0.126119	0.989748	-0.230199	-0.967171	-0.107654	0.970833	-0.220624	-0.093854
00919														9.731885	-1.017846	-0.958873	0.067261	-0.126337	0.989704	-0.230282	-0.967134	-0.107806	0.970797	-0.220660	-0.094144
00920														9.676356	-1.001983	-0.976081	0.067501	-0.126528	0.989664	-0.230314	-0.967112	-0.107936	0.970773	-0.220647	-0.094422
00921														9.717781	-1.046870	-0.944371	0.067758	-0.126723	0.989621	-0.230334	-0.967092	-0.108067	0.970750	-0.220621	-0.094717
00922														9.705238	-1.099520	-0.961300	0.067949	-0.126898	0.989586	-0.230335	-0.967078	-0.108196	0.970736	-0.220584	-0.094941
00923														9.694438	-1.151123	-0.943666	0.068186	-0.127098	0.989544	-0.230330	-0.967063	-0.108339	0.970721	-0.220535	-0.095215
00924														9.677820	-1.154130	-0.927574	0.068433	-0.127265	0.989505	-0.230382	-0.967039	-0.108442	0.970691	-0.220544	-0.095497
00925														9.691945	-1.154921	-0.982168	0.068644	-0.127394	0.989474	-0.230498	-0.967004	-0.108510	0.970648	-0.220624	-0.095743
00926														9.695216	-1.153761	-0.914962	0.068838	-0.127528	0.989443	-0.230641	-0.966961	-0.108584	0.970601	-0.220731	-0.095976
00927														9.689165	-1.106290	-0.917819	0.069022	-0.127653	0.989414	-0.230846	-0.966906	-0.108645	0.970539	-0.220903	-0.096206
00928														9.652881	-1.112256	-0.951998	0.069209	-0.127767	0.989386	-0.231076	-0.966845	-0.108692	0.970471	-0.221101	-0.096438
00929														9.694499	-1.034520	-0.975224	0.069360	-0.127802	0.989371	-0.231221	-0.966812	-0.108678	0.970426	-0.221225	-0.096609
00930														9.722824	-0.982365	-0.979416	0.069519	-0.127873	0.989351	-0.231374	-0.966774	-0.108697	0.970378	-0.221354	-0.096795
00931														9.742831	-1.030583	-1.032380	0.069769	-0.127888	0.989332	-0.231429	-0.966766	-0.108650	0.970347	-0.221379	-0.097047
00932														9.761395	-1.001879	-0.949496	0.070000	-0.127950	0.989307	-0.231392	-0.966773	-0.108663	0.970339	-0.221311	-0.097281
00933														9.673673	-0.987471	-0.929323	0.070164	-0.127967	0.989293	-0.231388	-0.966776	-0.108643	0.970328	-0.221288	-0.097443
00934														9.651957	-0.992387	-1.014794	0.070190	-0.127989	0.989289	-0.231383	-0.966776	-0.108659	0.970327	-0.221278	-0.097472
00935														9.727979	-0.910831	-1.038197	0.070207	-0.128050	0.989280	-0.231364	-0.966774	-0.108717	0.970331	-0.221251	-0.097501
00936														9.780903	-0.878911	-0.955570	0.070315	-0.128138	0.989261	-0.231326	-0.966775	-0.108783	0.970332	-0.221192	-0.097621
00937														9.717997	-0.936532	-0.951319	0.070465	-0.128263	0.989234	-0.231263	-0.966780	-0.108878	0.970336	-0.221101	-0.097787
00938														9.707334	-0.987905	-0.932539	0.070551	-0.128385	0.989212	-0.231005	-0.966827	-0.109005	0.970391	-0.220823	-0.097868
00939														9.684387	-1.090559	-0.928243	0.070586	-0.128528	0.989191	-0.230784	-0.966862	-0.109159	0.970441	-0.220584	-0.097910
00940														9.671942	-1.143147	-0.942921	0.070574	-0.128628	0.989179	-0.230738	-0.966862	-0.109264	0.970453	-0.220530	-0.097915
00941														9.665370	-1.122469	-1.011484	0.070456	-0.128751	0.989171	-0.230900	-0.966808	-0.109394	0.970423	-0.220692	-0.097846
00942														9.724162	-1.018161	-0.982211	0.070386	-0.128915	0.989155	-0.231208	-0.966718	-0.109539	0.970355	-0.220990	-0.097849
00943														9.741158	-0.870722	-0.987108	0.070365	-0.129127	0.989128	-0.231382	-0.966655	-0.109733	0.970315	-0.221145	-0.097896
00944														9.709777	-0.779698	-1.039776	0.070352	-0.129349	0.989100	-0.231245	-0.966661	-0.109967	0.970349	-0.220988	-0.097918
00945														9.735108	-0.827150	-0.987658	0.070403	-0.129532	0.989073	-0.230906	-0.966719	-0.110168	0.970426	-0.220626	-0.097969
00946														9.709637	-1.001845	-0.860206	0.070480	-0.129789	0.989034	-0.230483	-0.966788	-0.110445	0.970521	-0.220171	-0.098053
00947														9.671144	-1.132541	-0.871774	0.070530	-0.130058	0.988995	-0.230172	-0.966830	-0.110728	0.970591	-0.219829	-0.098126
00948														9.659416	-1.211951	-0.920335	0.070470	-0.130326	0.988964	-0.229982	-0.966841	-0.111023	0.970640	-0.219620	-0.098106
00949														9.687557	-1.336057	-0.968936	0.070310	-0.130618	0.988936	-0.230125	-0.966772	-0.111330	0.970618	-0.219752	-0.098032
00950														9.748320	-1.284146	-1.007188	0.070114	-0.130946	0.988907	-0.230633	-0.966615	-0.111642	0.970511	-0.220247	-0.097974
00951														9.780903	-1.162728	-1.098578	0.070046	-0.131260	0.988870	-0.231232	-0.966442	-0.111903	0.970374	-0.220820	-0.098046
00952														9.758569	-1.067001	-0.979632	0.070065	-0.131568	0.988828	-0.231649	-0.966312	-0.112158	0.970273	-0.221203	-0.098182
00953														9.722961	-1.048193	-0.944811	0.070187	-0.131820	0.988786	-0.231879	-0.966234	-0.112354	0.970209	-0.221393	-0.098384
00954														9.712727	-1.074012	-0.858815	0.070406	-0.132038	0.988741	-0.231958	-0.966197	-0.112510	0.970174	-0.221425	-0.098654
00955														9.709945	-1.198455	-0.839937	0.070644	-0.132221	0.988700	-0.231926	-0.966190	-0.112640	0.970165	-0.221348	-0.098921
00956														9.682050	-1.373031	-0.749311	0.070908	-0.132386	0.988659	-0.231991	-0.966163	-0.112735	0.970130	-0.221366	-0.099221
00957														9.663662	-1.376489	-0.768114	0.071180	-0.132526	0.988620	-0.232324	-0.966078	-0.112777	0.970030	-0.221653	-0.099554
00958														9.673127	-1.353254	-0.858742	0.071471	-0.132648	0.988583	-0.232923	-0.965935	-0.112770	0.969865	-0.222204	-0.099933
00959														9.640994	-1.234507	-0.880934	0.071792	-0.132752	0.988546	-0.233669	-0.965760	-0.112722	0.969662	-0.222900	-0.100354
00960														9.678325	-1.132806	-0.940794	0.072088	-0.132807	0.988517	-0.234349	-0.965605	-0.112639	0.969476	-0.223538	-0.100731
00961														9.689656	-1.107295	-0.997278	0.072452	-0.132842	0.988485	-0.234990	-0.965463	-0.112524	0.969294	-0.224132	-0.101167
00962														9.687538	-1.107140	-1.035235	0.072806	-0.132832	0.988461	-0.235570	-0.965339	-0.112374	0.969126	-0.224670	-0.101574
00963														9.715518	-1.175522	-0.986687	0.073179	-0.132814	0.988436	-0.236148	-0.965216	-0.112211	0.968958	-0.225206	-0.101997
00964														9.683759	-1.202591	-0.988082	0.073587	-0.132849	0.988401	-0.236690	-0.965097	-0.112095	0.968794	-0.225696	-0.102462
00965														9.679869	-1.152246	-0.958464	0.074011	-0.132845	0.988370	-0.237341	-0.964957	-0.111926	0.968603	-0.226297	-0.102947
00966														9.677951	-1.100945	-0.894193	0.074389	-0.132832	0.988343	-0.238026	-0.964808	-0.111753	0.968406	-0.226938	-0.103388
00967														9.722661	-1.045751	-0.918700	0.074736	-0.132830	0.988317	-0.238804	-0.964635	-0.111589	0.968188	-0.227674	-0.103814
00968														9.709503	-0.948178	-0.957881	0.075069	-0.132825	0.988292	-0.239610	-0.964455	-0.111421	0.967963	-0.228440	-0.104227
00969														9.754143	-0.893025	-0.982362	0.075475	-0.132857	0.988257	-0.240371	-0.964282	-0.111277	0.967742	-0.229150	-0.104714
00970														9.729368	-0.821179	-0.969063	0.075905	-0.132955	0.988211	-0.240982	-0.964137	-0.111206	0.967557	-0.229700	-0.105222
00971														9.739537	-0.771077	-0.992370	0.076407	-0.133134	0.988148	-0.241445	-0.964021	-0.111214	0.967402	-0.230086	-0.105802
00972														9.712242	-0.823322	-0.960315	0.076946	-0.133301	0.988084	-0.241657	-0.963966	-0.111229	0.967306	-0.230219	-0.106386
00973														9.699840	-0.899574	-1.015081	0.077441	-0.133496	0.988019	-0.241831	-0.963916	-0.111284	0.967223	-0.230316	-0.106930
00974														9.678783	-1.025824	-1.016198	0.077865	-0.133724	0.987955	-0.242039	-0.963852	-0.111386	0.967137	-0.230451	-0.107417
00975														9.704011	-1.148151	-1.105918	0.078170	-0.133994	0.987894	-0.242377	-0.963749	-0.111540	0.967028	-0.230724	-0.107813
00976														9.734801	-1.122378	-1.112105	0.078536	-0.134416	0.987808	-0.242961	-0.963572	-0.111801	0.966852	-0.231218	-0.108333
00977														9.712127	-0.930947	-1.118312	0.078918	-0.134821	0.987722	-0.243728	-0.963352	-0.112021	0.966627	-0.231895	-0.108885
00978														9.661870	-0.694055	-1.209573	0.079269	-0.135231	0.987638	-0.244293	-0.963180	-0.112275	0.966456	-0.232373	-0.109386
00979														9.608436	-0.630430	-1.383764	0.079547	-0.135638	0.987560	-0.244469	-0.963099	-0.112586	0.966389	-0.232472	-0.109771
00980														9.651710	-0.677528	-1.319005	0.079710	-0.136000	0.987497	-0.244506	-0.963053	-0.112897	0.966366	-0.232450	-0.110018
00981														9.706598	-0.799354	-1.478278	0.079892	-0.136472	0.987417	-0.244160	-0.963087	-0.113354	0.966438	-0.232031	-0.110263
00982														9.769967	-0.699270	-1.381353	0.079999	-0.137065	0.987326	-0.243356	-0.963214	-0.113999	0.966632	-0.231152	-0.110412
00983														9.630208	-0.474816	-1.255688	0.079936	-0.137681	0.987246	-0.243112	-0.963200	-0.114644	0.966699	-0.230847	-0.110466
00984														9.254018	-0.745710	-1.608042	0.079521	-0.138214	0.987205	-0.243676	-0.962991	-0.115195	0.966591	-0.231397	-0.110258
00985														9.536659	-0.819825	-1.655335	0.078886	-0.138947	0.987153	-0.244431	-0.962707	-0.115973	0.966453	-0.232142	-0.109907
00986														10.030984	-0.185314	-1.257262	0.078275	-0.140235	0.987019	-0.244759	-0.962458	-0.117335	0.966419	-0.232398	-0.109660
00987														10.473452	0.561236	-0.670809	0.078245	-0.141942	0.986778	-0.244418	-0.962335	-0.119046	0.966508	-0.231872	-0.109991
00988														10.733930	0.745873	-0.074231	0.078919	-0.143815	0.986453	-0.243390	-0.962373	-0.120832	0.966713	-0.230556	-0.110952
00989														10.595894	0.399139	0.477181	0.080204	-0.145790	0.986059	-0.241471	-0.962622	-0.122684	0.967088	-0.228264	-0.112410
00990														10.357121	-0.376014	0.674279	0.082051	-0.148012	0.985576	-0.238696	-0.963047	-0.124757	0.967622	-0.225017	-0.114349
00991														10.206307	-1.244203	0.520700	0.084383	-0.150453	0.985009	-0.236045	-0.963416	-0.126933	0.968072	-0.221795	-0.116809
00992														10.061762	-1.795857	0.203374	0.087130	-0.152929	0.984389	-0.234395	-0.963552	-0.128945	0.968229	-0.219501	-0.119800
00993														9.856945	-2.111344	-0.341729	0.089958	-0.155304	0.983762	-0.233659	-0.963489	-0.130737	0.968148	-0.218104	-0.122962
00994														9.715009	-2.149504	-0.811116	0.092561	-0.157738	0.983133	-0.233589	-0.963257	-0.132557	0.967920	-0.217379	-0.126006
00995														9.534601	-2.116347	-1.209035	0.095017	-0.160247	0.982493	-0.234170	-0.962861	-0.134398	0.967541	-0.217301	-0.129014
00996														9.533357	-2.013775	-1.449704	0.097570	-0.162611	0.981854	-0.234938	-0.962442	-0.136049	0.967101	-0.217400	-0.132109
00997														9.470054	-2.062091	-1.750815	0.100092	-0.164675	0.981256	-0.235565	-0.962092	-0.137430	0.966691	-0.217394	-0.135089
00998														9.453543	-2.296853	-1.893960	0.102425	-0.166380	0.980728	-0.236242	-0.961774	-0.138492	0.966281	-0.217504	-0.137816
00999														9.514686	-2.592640	-1.816176	0.104669	-0.167853	0.980240	-0.237135	-0.961436	-0.139312	0.965822	-0.217867	-0.140436
01000														9.516319	-2.768613	-1.718548	0.106971	-0.169123	0.979773	-0.238210	-0.961086	-0.139890	0.965305	-0.218427	-0.143095
01001														9.402694	-2.829499	-1.647671	0.109236	-0.170145	0.979346	-0.239842	-0.960643	-0.140144	0.964647	-0.219579	-0.145745
01002														9.344164	-2.808186	-1.496678	0.111403	-0.170797	0.978988	-0.242041	-0.960118	-0.139962	0.963849	-0.221363	-0.148300
01003														9.404542	-2.701239	-1.497348	0.113544	-0.171156	0.978679	-0.244753	-0.959511	-0.139408	0.962914	-0.223706	-0.150838
01004														9.451184	-2.543871	-1.600717	0.115552	-0.171305	0.978418	-0.247775	-0.958850	-0.138617	0.961902	-0.226410	-0.153242
01005														9.495464	-2.359639	-1.543865	0.117020	-0.171125	0.978275	-0.250990	-0.958162	-0.137583	0.960890	-0.229438	-0.155075
01006														9.608271	-2.070204	-1.420727	0.118419	-0.170702	0.978181	-0.254227	-0.957490	-0.136314	0.959867	-0.232538	-0.156782
01007														9.617511	-1.711938	-1.563402	0.120228	-0.170035	0.978076	-0.257181	-0.956923	-0.134744	0.958855	-0.235342	-0.158779
01008														9.501767	-1.508129	-1.692070	0.122159	-0.169085	0.978002	-0.259705	-0.956495	-0.132928	0.957930	-0.237754	-0.160757
01009														9.486866	-1.368493	-1.742672	0.124015	-0.167975	0.977960	-0.261497	-0.956261	-0.131088	0.957204	-0.239477	-0.162515
01010														9.551096	-1.344088	-1.800131	0.125778	-0.166737	0.977946	-0.262639	-0.956198	-0.129250	0.956661	-0.240590	-0.164060
01011														9.662784	-1.462019	-1.863339	0.127525	-0.165542	0.977923	-0.264059	-0.956055	-0.127405	0.956039	-0.241982	-0.165634
01012														9.669092	-1.760477	-1.934250	0.129128	-0.164351	0.977913	-0.265872	-0.955801	-0.125528	0.955321	-0.243790	-0.167117
01013														9.641974	-2.056945	-2.157540	0.130413	-0.162977	0.977973	-0.268373	-0.955376	-0.123423	0.954446	-0.246366	-0.168332
01014														9.587981	-2.285577	-2.115871	0.131349	-0.161434	0.978104	-0.271900	-0.954681	-0.121054	0.953319	-0.250046	-0.169290
01015														9.549238	-2.533774	-2.128812	0.131925	-0.159800	0.978294	-0.276332	-0.953726	-0.118523	0.951965	-0.254697	-0.169978
01016														9.328063	-2.623034	-2.238480	0.131924	-0.158030	0.978582	-0.281683	-0.952489	-0.115842	0.950395	-0.260368	-0.170170
01017														9.053476	-2.697250	-2.201370	0.131313	-0.156260	0.978948	-0.288418	-0.950804	-0.113080	0.948458	-0.267498	-0.169921
01018														8.738689	-3.075638	-2.048889	0.129840	-0.154238	0.979465	-0.296486	-0.948671	-0.110086	0.946170	-0.276104	-0.168905
01019														8.441876	-3.539260	-1.681232	0.127428	-0.151767	0.980168	-0.306392	-0.945914	-0.106630	0.943338	-0.286728	-0.167036
01020														8.353506	-4.098315	-1.110160	0.124098	-0.148716	0.981062	-0.319076	-0.942174	-0.102460	0.939569	-0.300319	-0.164373
01021														8.719690	-4.630679	-0.693755	0.120078	-0.145005	0.982118	-0.335708	-0.936929	-0.097287	0.934281	-0.318022	-0.161184
01022														9.382823	-4.954552	-0.406007	0.115552	-0.140835	0.983267	-0.357852	-0.929328	-0.091055	0.926601	-0.341342	-0.157784
01023														9.995791	-4.900208	-0.137729	0.110895	-0.136927	0.984354	-0.386212	-0.918553	-0.084264	0.915720	-0.370825	-0.154745
01024														10.558454	-4.311309	0.024221	0.106087	-0.133842	0.985308	-0.420281	-0.904073	-0.077556	0.901171	-0.405879	-0.152161
01025														10.624633	-3.170880	-0.305123	0.100751	-0.131353	0.986203	-0.458962	-0.885609	-0.071067	0.882725	-0.445470	-0.149512
01026														10.237742	-1.639761	-1.028580	0.095494	-0.128641	0.987083	-0.500431	-0.863399	-0.064109	0.860494	-0.487845	-0.146826
01027														9.818059	0.034143	-2.045293	0.091173	-0.125390	0.987909	-0.541718	-0.838662	-0.056452	0.835601	-0.530022	-0.144390
01028														9.761513	1.506837	-2.895645	0.087972	-0.121812	0.988647	-0.580036	-0.813142	-0.048575	0.809827	-0.569177	-0.142189
01029														10.007374	2.670278	-3.315100	0.085600	-0.118540	0.989253	-0.613449	-0.788647	-0.041420	0.785082	-0.603310	-0.140226
01030														10.412742	3.455241	-3.397920	0.083796	-0.116107	0.989696	-0.641349	-0.766423	-0.035612	0.762660	-0.631756	-0.138688
01031														10.555162	3.726967	-3.359283	0.082542	-0.114744	0.989960	-0.664521	-0.746621	-0.031132	0.742697	-0.655280	-0.137877
01032														10.557040	3.459704	-3.134795	0.082019	-0.114340	0.990050	-0.684042	-0.728924	-0.027514	0.724817	-0.674979	-0.137999
01033														10.475480	2.858162	-2.825574	0.082182	-0.114883	0.989974	-0.700805	-0.712930	-0.024556	0.708603	-0.691761	-0.139101
01034														10.428703	2.191675	-2.392351	0.082727	-0.116477	0.989742	-0.715541	-0.698212	-0.022360	0.693655	-0.706352	-0.141105
01035														10.310928	1.779224	-2.190025	0.083307	-0.119178	0.989372	-0.729015	-0.684175	-0.021030	0.679410	-0.719514	-0.143879
01036														10.311277	1.391447	-2.139448	0.083735	-0.122913	0.988879	-0.741972	-0.670118	-0.020465	0.665181	-0.732007	-0.147310
01037														10.287823	1.188334	-2.312904	0.084025	-0.127603	0.988260	-0.754756	-0.655685	-0.020490	0.650602	-0.744173	-0.151403
01038														10.048540	1.298129	-2.602594	0.083962	-0.133154	0.987532	-0.767018	-0.641274	-0.021253	0.636109	-0.755671	-0.155974
01039														9.354640	1.742678	-3.213646	0.083279	-0.139086	0.986772	-0.778776	-0.626894	-0.022636	0.621750	-0.766589	-0.160524
01040														8.508668	1.750036	-3.833720	0.081915	-0.144630	0.986089	-0.790010	-0.612615	-0.024226	0.607597	-0.777036	-0.164442
01041														8.273782	1.340521	-3.718239	0.080765	-0.149770	0.985417	-0.799094	-0.600652	-0.025797	0.595756	-0.785357	-0.168192
01042														8.847823	0.912590	-3.220169	0.080068	-0.154677	0.984715	-0.804687	-0.593051	-0.027725	0.588275	-0.790168	-0.171951
01043														9.519212	0.676902	-2.680439	0.079431	-0.159410	0.984012	-0.808179	-0.588170	-0.030045	0.583555	-0.792871	-0.175551
01044														9.655786	0.256622	-2.245783	0.078766	-0.163986	0.983313	-0.811553	-0.583386	-0.032284	0.578945	-0.795468	-0.179034
01045														9.406237	-0.461134	-1.896328	0.078389	-0.168515	0.982577	-0.815283	-0.578059	-0.034096	0.573733	-0.798405	-0.182700
01046														9.001277	-1.198586	-1.583902	0.078588	-0.172614	0.981849	-0.819159	-0.572493	-0.035081	0.568158	-0.801533	-0.186389
01047														8.658484	-1.674601	-1.451706	0.079371	-0.175755	0.981229	-0.823650	-0.566031	-0.034762	0.561516	-0.805431	-0.189687
01048														8.623932	-1.893277	-1.202153	0.080659	-0.177954	0.980727	-0.829081	-0.558149	-0.033090	0.553280	-0.810433	-0.192558
01049														8.736730	-1.811813	-1.123479	0.082401	-0.179618	0.980279	-0.835354	-0.548874	-0.030352	0.543502	-0.816379	-0.195272
01050														8.837701	-1.589961	-1.154885	0.084589	-0.180713	0.979891	-0.842309	-0.538339	-0.026569	0.532315	-0.823124	-0.197754
01051														8.867502	-1.341240	-1.348023	0.087395	-0.181109	0.979572	-0.849724	-0.526786	-0.021585	0.519934	-0.830479	-0.199931
01052														8.988273	-1.108026	-1.354735	0.090889	-0.180884	0.979296	-0.857063	-0.514976	-0.015576	0.507131	-0.837903	-0.201835
01053														9.027726	-0.909382	-1.216058	0.094997	-0.180091	0.979052	-0.864034	-0.503358	-0.008753	0.494390	-0.845103	-0.203422
01054														9.068462	-0.715941	-1.027935	0.099484	-0.178649	0.978870	-0.870961	-0.491350	-0.001157	0.481175	-0.852443	-0.204478
01055														9.134833	-0.598535	-0.891280	0.104276	-0.176623	0.978739	-0.878262	-0.478125	0.007289	0.466672	-0.860349	-0.204979
01056														9.208049	-0.537503	-0.761926	0.109266	-0.174115	0.978644	-0.885943	-0.463503	0.016452	0.450740	-0.868821	-0.204901
01057														9.306823	-0.264143	-0.679408	0.114393	-0.171289	0.978557	-0.893768	-0.447769	0.026103	0.433697	-0.877589	-0.204314
01058														9.372861	0.239665	-0.682545	0.119407	-0.168118	0.978508	-0.901632	-0.431005	0.035974	0.415694	-0.886550	-0.203046
01059														9.328364	0.754132	-0.743750	0.124281	-0.164629	0.978495	-0.909509	-0.413131	0.046011	0.396672	-0.895668	-0.201075
01060														9.375220	1.075937	-0.651788	0.129007	-0.160865	0.978509	-0.917194	-0.394477	0.056072	0.376979	-0.904716	-0.198434
01061														9.495716	1.474878	-0.653567	0.133591	-0.157080	0.978509	-0.924371	-0.375763	0.065878	0.357339	-0.913306	-0.195399
01062														9.673098	1.841059	-0.786595	0.137957	-0.153318	0.978499	-0.930940	-0.357332	0.075263	0.338110	-0.921307	-0.192027
01063														9.789339	2.129827	-0.828916	0.142114	-0.149712	0.978463	-0.936871	-0.339401	0.084142	0.319494	-0.928651	-0.188495
01064														9.714440	2.421663	-0.976308	0.146111	-0.146280	0.978393	-0.942127	-0.322237	0.092517	0.301741	-0.935289	-0.184896
01065														9.604130	2.493599	-1.071498	0.150031	-0.142830	0.978310	-0.946838	-0.305580	0.100590	0.284585	-0.941393	-0.181083
01066														9.616617	2.432584	-1.013919	0.153744	-0.139361	0.978234	-0.951122	-0.289209	0.108282	0.267824	-0.947067	-0.177014
01067														9.712245	2.414866	-1.001486	0.157018	-0.135784	0.978217	-0.955005	-0.273234	0.115366	0.251617	-0.952316	-0.172578
01068														9.508575	2.253492	-1.124742	0.159857	-0.132072	0.978265	-0.958722	-0.256848	0.121988	0.235154	-0.957385	-0.167679
01069														9.295620	1.880827	-0.980659	0.162438	-0.128293	0.978343	-0.962328	-0.239689	0.128348	0.218032	-0.962336	-0.162395
01070														9.099004	1.458732	-0.936065	0.164767	-0.124250	0.978475	-0.965722	-0.222062	0.134422	0.200580	-0.967084	-0.156580
01071														8.889188	0.873882	-0.751615	0.167051	-0.119713	0.978654	-0.968998	-0.203197	0.140547	0.182034	-0.971792	-0.149946
01072														8.878740	0.509059	-0.493486	0.169322	-0.114996	0.978829	-0.972150	-0.182771	0.146695	0.162032	-0.976407	-0.142740
01073														9.003237	0.687720	-0.159789	0.171617	-0.110199	0.978981	-0.975050	-0.161023	0.152802	0.140800	-0.980779	-0.135084
01074														8.997251	1.289694	-0.083916	0.174059	-0.105344	0.979084	-0.977605	-0.137920	0.158957	0.118290	-0.984825	-0.126991
01075														8.931576	1.849544	-0.210086	0.176757	-0.100529	0.979107	-0.979669	-0.113877	0.165166	0.094894	-0.988396	-0.118614
01076														8.869949	2.128696	-0.344112	0.179577	-0.095795	0.979069	-0.981152	-0.089644	0.171188	0.071369	-0.991356	-0.110088
01077														8.950278	2.362495	-0.526782	0.182520	-0.091048	0.978977	-0.982020	-0.065687	0.176978	0.048193	-0.993678	-0.101400
01078														8.952269	2.557434	-0.827889	0.185660	-0.086326	0.978815	-0.982288	-0.041969	0.182617	0.025315	-0.995383	-0.092589
01079														8.867599	2.704065	-0.919310	0.189051	-0.082053	0.978533	-0.981963	-0.018892	0.188129	0.003050	-0.996449	-0.084144
01080														8.763778	3.093802	-0.840361	0.192332	-0.078253	0.978205	-0.981178	0.002179	0.193091	-0.017242	-0.996931	-0.076361
01081														8.686058	3.382027	-1.035116	0.195514	-0.074643	0.977856	-0.980063	0.021085	0.197565	-0.035365	-0.996987	-0.069033
01082														8.814446	3.353858	-1.127328	0.198419	-0.071384	0.977514	-0.978711	0.038976	0.201508	-0.052485	-0.996687	-0.062131
01083														9.147806	3.156750	-1.083822	0.201096	-0.068948	0.977142	-0.977187	0.055441	0.205017	-0.068309	-0.996079	-0.056226
01084														9.598188	2.875078	-0.921624	0.203240	-0.067494	0.976800	-0.975610	0.070541	0.207866	-0.082934	-0.995223	-0.051511
01085														9.793171	2.761952	-0.730463	0.204305	-0.066773	0.976627	-0.974086	0.085026	0.209587	-0.097033	-0.994139	-0.047671
01086														9.320350	2.755399	-0.908824	0.204168	-0.066695	0.976661	-0.972687	0.098726	0.210079	-0.110433	-0.992877	-0.044717
01087														8.524428	2.737050	-1.164850	0.203370	-0.067148	0.976797	-0.971408	0.110987	0.209877	-0.122505	-0.991551	-0.042657
01088														8.278975	2.678591	-1.185584	0.202018	-0.067927	0.977023	-0.970351	0.121278	0.209071	-0.132693	-0.990292	-0.041413
01089														8.741866	2.601789	-0.892763	0.199619	-0.068911	0.977448	-0.969712	0.129396	0.207161	-0.140754	-0.989196	-0.040994
01090														9.228067	2.465530	-0.678972	0.195618	-0.070064	0.978174	-0.969592	0.135754	0.203625	-0.147058	-0.988262	-0.041378
01091														9.315147	2.369779	-0.662928	0.190208	-0.071384	0.979145	-0.969963	0.140382	0.198658	-0.151635	-0.987521	-0.042538
01092														9.035628	2.168640	-0.698969	0.183686	-0.072965	0.980273	-0.970747	0.143408	0.192575	-0.154631	-0.986970	-0.044488
01093														8.980259	1.740477	-0.432970	0.176155	-0.074654	0.981527	-0.971968	0.144541	0.185433	-0.155714	-0.986679	-0.047100
01094														9.142561	1.244940	0.023587	0.167593	-0.076392	0.982892	-0.973665	0.143479	0.177172	-0.154559	-0.986701	-0.050335
01095														9.324961	0.755800	0.429616	0.158183	-0.078227	0.984306	-0.975776	0.140191	0.167954	-0.151129	-0.987029	-0.054156
01096														10.157856	0.365187	0.952063	0.148723	-0.079685	0.985663	-0.978162	0.134495	0.158464	-0.145194	-0.987705	-0.057942
01097														9.621030	0.377348	1.548968	0.143381	-0.079572	0.986463	-0.979988	0.127654	0.152737	-0.138080	-0.988622	-0.059676
01098														9.056308	4.023798	-0.088138	0.146640	-0.078428	0.986076	-0.979518	0.127546	0.155809	-0.137990	-0.988727	-0.058119
01099														10.682991	7.174116	-2.082640	0.151240	-0.079039	0.985332	-0.977974	0.133093	0.160786	-0.143850	-0.987947	-0.057169
01100														12.135933	6.577971	-0.180612	0.146905	-0.080797	0.985845	-0.978629	0.133106	0.156739	-0.143886	-0.987803	-0.059516
01101														11.134241	6.401878	1.729457	0.136681	-0.076897	0.987626	-0.981166	0.126869	0.145665	-0.136501	-0.988934	-0.058108
01102														9.915706	7.161961	0.931654	0.128788	-0.068790	0.989283	-0.983500	0.118948	0.136306	-0.127050	-0.990515	-0.052336
01103														10.824738	6.435364	-2.559858	0.125932	-0.063091	0.990031	-0.985322	0.107984	0.132215	-0.115249	-0.992149	-0.048566
01104														11.515193	4.644547	-4.912678	0.124029	-0.061305	0.990383	-0.987146	0.093767	0.129428	-0.100799	-0.993705	-0.048887
01105														10.739628	2.039265	-3.781182	0.118504	-0.061897	0.991022	-0.989503	0.075775	0.123055	-0.082712	-0.995202	-0.052268
01106														10.086231	0.046066	-2.169140	0.109717	-0.062021	0.992026	-0.992069	0.054755	0.113145	-0.061336	-0.996572	-0.055521
01107														10.319158	-0.379633	-1.732968	0.100275	-0.059708	0.993167	-0.994034	0.037030	0.102589	-0.042902	-0.997529	-0.055639
01108														11.114684	0.282716	-1.806544	0.089985	-0.056394	0.994345	-0.995488	0.025089	0.091512	-0.030107	-0.998093	-0.053882
01109														11.434769	1.411827	-2.306424	0.078460	-0.054508	0.995426	-0.996746	0.014240	0.079344	-0.018499	-0.998412	-0.053213
01110														10.361783	1.693268	-1.614021	0.066910	-0.054674	0.996260	-0.997750	0.000562	0.067041	-0.004225	-0.998504	-0.054513
01111														9.039105	1.098346	-0.300484	0.056928	-0.055136	0.996855	-0.998301	-0.015569	0.056149	0.012424	-0.998357	-0.055929
01112														8.523377	-0.346346	0.959100	0.047949	-0.054295	0.997373	-0.998469	-0.030167	0.046360	0.027570	-0.998069	-0.055658
01113														9.201870	-2.210628	1.738587	0.038263	-0.052070	0.997910	-0.998493	-0.041301	0.036130	0.039333	-0.997789	-0.053572
01114														10.423373	-3.657896	1.386968	0.026857	-0.048809	0.998447	-0.998486	-0.049277	0.024449	0.048007	-0.997592	-0.050059
01115														10.962548	-5.086424	0.762340	0.014453	-0.044461	0.998907	-0.998497	-0.053452	0.012068	0.052857	-0.997580	-0.045167
01116														10.012873	-5.831644	0.361206	0.002180	-0.038400	0.999260	-0.998622	-0.052472	0.000162	0.052427	-0.997884	-0.038462
01117														8.763907	-5.232621	-0.129679	-0.009276	-0.031051	0.999475	-0.998875	-0.046192	-0.010706	0.046500	-0.998450	-0.030588
01118														8.326908	-4.079904	-1.166640	-0.019546	-0.023846	0.999525	-0.999084	-0.037594	-0.020434	0.038064	-0.999009	-0.023089
01119														8.646614	-2.560376	-2.282325	-0.028483	-0.018046	0.999431	-0.999123	-0.030198	-0.029019	0.030705	-0.999381	-0.017170
01120														9.507873	-0.523688	-2.070922	-0.036261	-0.013703	0.999248	-0.998984	-0.026283	-0.036612	0.026765	-0.999561	-0.012736
01121														10.304507	1.525957	-1.193593	-0.043555	-0.009457	0.999006	-0.998677	-0.026958	-0.043795	0.027345	-0.999592	-0.008271
01122														10.275275	1.670003	-0.002085	-0.050828	-0.004970	0.998695	-0.998159	-0.032882	-0.050964	0.033093	-0.999447	-0.003289
01123														9.808917	-0.103363	1.017539	-0.057754	-0.000772	0.998331	-0.997419	-0.042696	-0.057734	0.042670	-0.999088	0.001696
01124														9.337833	-2.464599	2.615252	-0.063993	0.003848	0.997943	-0.996651	-0.051263	-0.063713	0.050912	-0.998678	0.007116
01125														9.724258	-4.622088	3.090725	-0.070172	0.009431	0.997490	-0.996202	-0.052333	-0.069586	0.051545	-0.998585	0.013067
01126														10.235783	-5.319339	2.953486	-0.077409	0.014923	0.996888	-0.995938	-0.047287	-0.076628	0.045996	-0.998770	0.018523
01127														10.176067	-3.388366	2.198038	-0.085243	0.020138	0.996157	-0.995675	-0.038803	-0.084418	0.036954	-0.999044	0.023359
01128														10.343714	-0.305164	1.453168	-0.092806	0.024920	0.995372	-0.995341	-0.028562	-0.092088	0.026135	-0.999281	0.027455
01129														10.421580	1.738938	0.795560	-0.099775	0.028759	0.994594	-0.994853	-0.020631	-0.099205	0.017667	-0.999373	0.030669
01130														10.207029	1.964645	0.327849	-0.106263	0.031626	0.993835	-0.994239	-0.017492	-0.105750	0.014040	-0.999347	0.033302
01131														9.756341	0.558135	0.455484	-0.112314	0.034588	0.993071	-0.993572	-0.018158	-0.111738	0.014168	-0.999237	0.036405
01132														9.967106	-1.476913	0.788039	-0.118325	0.037766	0.992256	-0.992866	-0.019302	-0.117663	0.014708	-0.999100	0.039781
01133														10.240386	-2.846384	0.903960	-0.124769	0.040323	0.991366	-0.992104	-0.017859	-0.124136	0.012699	-0.999027	0.042233
01134														9.906403	-3.025775	0.823783	-0.131814	0.042580	0.990360	-0.991247	-0.013045	-0.131371	0.007325	-0.999008	0.043926
01135														9.802954	-1.835932	0.526663	-0.139268	0.045168	0.989224	-0.990255	-0.006268	-0.139127	-0.000083	-0.998960	0.045601
01136														10.085306	-0.051759	0.105736	-0.147010	0.047990	0.987970	-0.989100	0.001269	-0.147240	-0.008320	-0.998847	0.047281
01137														10.340467	1.142059	0.081205	-0.154809	0.050387	0.986659	-0.987827	0.007507	-0.155376	-0.015236	-0.998702	0.048612
01138														10.258994	0.978487	0.057719	-0.162490	0.052107	0.985333	-0.986523	0.010895	-0.163262	-0.019242	-0.998582	0.049635
01139														9.891144	-0.242031	0.342811	-0.170085	0.053873	0.983956	-0.985198	0.012335	-0.170975	-0.021348	-0.998472	0.050977
01140														9.665719	-1.710342	0.655579	-0.177767	0.055529	0.982505	-0.983797	0.013605	-0.178770	-0.023294	-0.998364	0.052210
01141														9.330315	-3.079609	0.885565	-0.185449	0.057215	0.980987	-0.982315	0.015419	-0.186600	-0.025802	-0.998243	0.053343
01142														9.154908	-3.558862	0.868649	-0.192928	0.059246	0.979423	-0.980762	0.018598	-0.194317	-0.029728	-0.998070	0.054518
01143														9.141514	-3.161564	0.609143	-0.200119	0.061087	0.977865	-0.979157	0.022869	-0.201812	-0.034691	-0.997870	0.055238
01144														8.979608	-2.698105	0.425603	-0.206971	0.062923	0.976321	-0.977548	0.027018	-0.208973	-0.039527	-0.997653	0.055918
01145														8.962491	-2.670536	0.430816	-0.213389	0.064847	0.974813	-0.975991	0.030440	-0.215672	-0.043659	-0.997431	0.056795
01146														9.048049	-3.031975	0.285852	-0.219453	0.066705	0.973340	-0.974485	0.033189	-0.221986	-0.047112	-0.997221	0.057720
01147														9.049931	-3.460570	0.581536	-0.225161	0.068513	0.971910	-0.973015	0.035838	-0.227944	-0.050448	-0.997006	0.058595
01148														9.102470	-3.581928	0.830938	-0.230423	0.070405	0.970540	-0.971611	0.038329	-0.233458	-0.053636	-0.996782	0.059574
01149														9.435200	-3.387328	0.986423	-0.235370	0.072605	0.969190	-0.970229	0.041002	-0.238694	-0.057069	-0.996518	0.060793
01150														9.627711	-3.065880	0.997630	-0.240163	0.074953	0.967835	-0.968805	0.044299	-0.243835	-0.061150	-0.996203	0.061975
01151														9.762495	-2.509384	0.881404	-0.244903	0.077399	0.966453	-0.967321	0.048012	-0.248968	-0.065671	-0.995843	0.063112
01152														9.801372	-1.981590	0.830096	-0.249655	0.079719	0.965048	-0.965804	0.051506	-0.254106	-0.069963	-0.995486	0.064134
01153														9.772923	-1.870679	0.691874	-0.254435	0.081978	0.963609	-0.964233	0.055025	-0.259281	-0.074278	-0.995114	0.065046
01154														9.705953	-2.032495	0.718073	-0.259410	0.084147	0.962095	-0.962572	0.058446	-0.264650	-0.078500	-0.994738	0.065836
01155														9.902660	-2.058021	0.694719	-0.264600	0.086257	0.960493	-0.960814	0.061737	-0.270233	-0.082607	-0.994358	0.066541
01156														9.939911	-2.091645	0.632681	-0.269979	0.088384	0.958801	-0.958905	0.065551	-0.276051	-0.087249	-0.993927	0.067055
01157														9.788172	-2.067450	0.740410	-0.275558	0.090448	0.957020	-0.956855	0.069653	-0.282093	-0.092174	-0.993462	0.067353
01158														9.751239	-1.917965	0.740921	-0.281329	0.092476	0.955145	-0.954708	0.073522	-0.288319	-0.096887	-0.992997	0.067604
01159														9.730240	-1.951620	0.687463	-0.287226	0.094564	0.953184	-0.952476	0.077192	-0.294671	-0.101443	-0.992522	0.067898
01160														9.740027	-2.390708	0.636339	-0.293153	0.096723	0.951160	-0.950178	0.080764	-0.301063	-0.105939	-0.992029	0.068228
01161														9.793896	-2.883911	0.607132	-0.299106	0.098891	0.949082	-0.947818	0.084228	-0.307484	-0.110346	-0.991527	0.068538
01162														9.697150	-3.002875	0.551989	-0.305243	0.100967	0.946907	-0.945289	0.088096	-0.314114	-0.115134	-0.990982	0.068553
01163														9.467189	-2.953437	0.499160	-0.311519	0.103116	0.944628	-0.942553	0.092658	-0.320949	-0.120622	-0.990344	0.068328
01164														9.358291	-2.802164	0.607039	-0.317988	0.105432	0.942214	-0.939624	0.097506	-0.328024	-0.126456	-0.989635	0.068061
01165														9.264292	-2.535239	0.642399	-0.324668	0.107888	0.939655	-0.936506	0.102468	-0.335345	-0.132464	-0.988868	0.067770
01166														9.130099	-2.319239	0.577164	-0.331673	0.110215	0.936934	-0.933178	0.107437	-0.342981	-0.138463	-0.988084	0.067216
01167														8.940716	-2.432313	0.569506	-0.338876	0.112393	0.934094	-0.929774	0.111757	-0.350756	-0.143814	-0.987359	0.066628
01168														8.871336	-2.700304	0.699883	-0.346168	0.114230	0.931192	-0.926397	0.115146	-0.358511	-0.148176	-0.986759	0.065963
01169														9.024158	-3.211359	1.009544	-0.353549	0.115606	0.928245	-0.923032	0.117822	-0.366238	-0.151707	-0.986283	0.065052
01170														9.066906	-3.969333	1.058278	-0.360835	0.116710	0.925298	-0.919750	0.119785	-0.373781	-0.154461	-0.985916	0.064122
01171														8.785279	-4.712499	1.049305	-0.367970	0.117813	0.922344	-0.916443	0.121813	-0.381175	-0.157260	-0.985536	0.063146
01172														8.446822	-5.131921	1.086623	-0.374837	0.119108	0.919408	-0.913068	0.124406	-0.388368	-0.160637	-0.985057	0.062122
01173														8.300989	-5.009234	0.826818	-0.381368	0.120767	0.916501	-0.909527	0.128248	-0.395365	-0.165287	-0.984362	0.060931
01174														8.453893	-4.457312	0.728148	-0.387755	0.122418	0.913597	-0.905720	0.133507	-0.402301	-0.171221	-0.983458	0.059109
01175														8.810749	-3.760021	0.574238	-0.394151	0.124141	0.910623	-0.901763	0.139012	-0.409267	-0.177395	-0.982479	0.057154
01176														9.170950	-3.176508	0.525495	-0.400834	0.125920	0.907456	-0.897609	0.144295	-0.416507	-0.183388	-0.981490	0.055189
01177														9.277308	-2.947744	0.537672	-0.407853	0.127671	0.904077	-0.893206	0.149514	-0.424063	-0.189313	-0.980482	0.053057
01178														9.252517	-2.922721	0.633944	-0.415186	0.129460	0.900478	-0.888684	0.153992	-0.431887	-0.194579	-0.979554	0.051113
01179														9.239378	-2.867207	0.754144	-0.422712	0.131278	0.896706	-0.884039	0.158052	-0.439880	-0.199473	-0.978665	0.049244
01180														9.397391	-3.058903	0.753185	-0.430498	0.132978	0.892742	-0.879201	0.161930	-0.448089	-0.204147	-0.977801	0.047204
01181														9.580116	-3.176576	0.616202	-0.438477	0.134611	0.888604	-0.874272	0.165260	-0.456439	-0.208293	-0.977020	0.045224
01182														9.633698	-3.604505	0.500600	-0.446608	0.136249	0.884295	-0.869192	0.168378	-0.464924	-0.212242	-0.976261	0.043227
01183														9.706190	-4.187866	0.590442	-0.454739	0.138044	0.879862	-0.863934	0.171674	-0.473441	-0.216405	-0.975434	0.041195
01184														9.988115	-4.511140	0.377276	-0.462993	0.139690	0.875285	-0.858496	0.174993	-0.482040	-0.220505	-0.974610	0.038903
01185														10.144012	-4.494037	0.228616	-0.471335	0.141318	0.870559	-0.852755	0.178864	-0.490731	-0.225060	-0.973672	0.036205
01186														10.033381	-4.364438	0.279289	-0.479641	0.143262	0.865691	-0.846681	0.183470	-0.499470	-0.230384	-0.972530	0.033298
01187														10.140291	-3.902145	0.429222	-0.488193	0.145212	0.860570	-0.840282	0.188190	-0.508439	-0.235782	-0.971338	0.030146
01188														10.425704	-3.165264	0.326286	-0.497077	0.146929	0.855176	-0.833571	0.192856	-0.517654	-0.240984	-0.970164	0.026612
01189														10.742252	-2.470569	0.314088	-0.506277	0.148400	0.849506	-0.826722	0.196783	-0.527074	-0.245387	-0.969151	0.023059
01190														10.939846	-2.154658	0.027887	-0.515898	0.149715	0.843466	-0.819649	0.199981	-0.536827	-0.249049	-0.968294	0.019544
01191														10.979593	-2.284057	-0.206043	-0.525918	0.150967	0.837030	-0.812392	0.202247	-0.546915	-0.251853	-0.967629	0.016279
01192														10.760820	-2.421231	-0.417973	-0.536389	0.152369	0.830102	-0.804757	0.203985	-0.557455	-0.254268	-0.967044	0.013205
01193														10.623473	-2.494261	-0.596336	-0.547246	0.153794	0.822721	-0.796615	0.205843	-0.568360	-0.256762	-0.966424	0.009868
01194														10.630902	-2.269367	-0.685474	-0.558583	0.155287	0.814783	-0.787892	0.207697	-0.579732	-0.259253	-0.965789	0.006334
01195														10.676953	-1.872513	-0.917104	-0.570450	0.156655	0.806254	-0.778588	0.209412	-0.591564	-0.261511	-0.965197	0.002511
01196														10.657836	-1.833043	-0.966759	-0.582728	0.157997	0.797161	-0.768793	0.210769	-0.603766	-0.263410	-0.964683	-0.001354
01197														11.029753	-1.718239	-0.728069	-0.595554	0.159291	0.787364	-0.758423	0.211572	-0.616467	-0.264782	-0.964294	-0.005193
01198														11.492940	-1.655930	-1.097131	-0.608806	0.160664	0.776880	-0.747414	0.212124	-0.629584	-0.265946	-0.963945	-0.009060
01199														11.678665	-1.960414	-1.074338	-0.622133	0.162221	0.765921	-0.735763	0.213227	-0.642797	-0.267590	-0.963441	-0.013299
01200														12.153701	-2.234829	-1.477812	-0.635710	0.164802	0.754131	-0.722998	0.215171	-0.656487	-0.270457	-0.962570	-0.017635
01201														12.385957	-2.371650	-1.815062	-0.649560	0.168356	0.741437	-0.708590	0.219477	-0.670619	-0.275631	-0.960982	-0.023269
01202														12.431514	-2.563127	-1.954234	-0.663495	0.172720	0.727972	-0.692483	0.226620	-0.684917	-0.283271	-0.958547	-0.030756
01203														12.360713	-2.330263	-2.332465	-0.677211	0.178544	0.713797	-0.674410	0.237274	-0.699193	-0.294203	-0.954894	-0.040273
01204														12.307535	-1.207339	-2.502784	-0.690449	0.185802	0.699112	-0.654430	0.251353	-0.713122	-0.308224	-0.949894	-0.051952
01205														12.612230	0.685487	-2.103710	-0.703048	0.194332	0.684075	-0.633399	0.266212	-0.726592	-0.323309	-0.944122	-0.064070
01206														13.269201	2.426437	-1.092785	-0.715813	0.203885	0.667864	-0.611515	0.278736	-0.740510	-0.337137	-0.938476	-0.074844
01207														13.341680	2.660658	0.286334	-0.728449	0.213906	0.650851	-0.589934	0.287185	-0.754654	-0.348340	-0.933686	-0.083009
01208														12.784487	1.199907	0.850959	-0.740050	0.223517	0.634324	-0.569954	0.292273	-0.767938	-0.357043	-0.929848	-0.088902
01209														12.313276	-2.063655	0.700070	-0.749810	0.232216	0.619565	-0.553228	0.293606	-0.779573	-0.362937	-0.927292	-0.091680
01210														11.813446	-4.839101	0.807859	-0.758129	0.239280	0.606619	-0.539986	0.291171	-0.789706	-0.365591	-0.926264	-0.091538
01211														10.838768	-6.092452	0.896253	-0.765330	0.243578	0.595768	-0.529750	0.287336	-0.798000	-0.365561	-0.926341	-0.090871
01212														9.450471	-6.788846	1.430660	-0.772254	0.244319	0.586457	-0.522680	0.280415	-0.805092	-0.361151	-0.928265	-0.088851
01213														8.338281	-7.687554	1.977322	-0.778995	0.241564	0.578631	-0.520036	0.266685	-0.811444	-0.350328	-0.933020	-0.082124
01214														7.691832	-8.570014	2.544812	-0.785545	0.236739	0.571729	-0.520158	0.247851	-0.817316	-0.335194	-0.939428	-0.071557
01215														7.758954	-10.568190	2.417964	-0.792127	0.229911	0.565399	-0.521081	0.227619	-0.822596	-0.317819	-0.946219	-0.060500
01216														8.124709	-12.224810	3.304153	-0.799676	0.222134	0.557830	-0.519691	0.209259	-0.828331	-0.300732	-0.952296	-0.051898
01217														6.735017	-11.690073	3.818986	-0.807394	0.216316	0.548929	-0.514707	0.196581	-0.834525	-0.288430	-0.956328	-0.047379
01218														4.017154	-10.261871	3.277843	-0.813669	0.214136	0.540453	-0.506981	0.193523	-0.839952	-0.284454	-0.957442	-0.048901
01219														1.749532	-9.603559	1.839782	-0.817076	0.215186	0.534866	-0.499307	0.199699	-0.843097	-0.288235	-0.955937	-0.055726
01220														0.716280	-9.650373	0.492086	-0.817865	0.217002	0.532923	-0.493179	0.212769	-0.843507	-0.296432	-0.952701	-0.066996
01221														0.846294	-9.676580	-0.527916	-0.816834	0.217243	0.534404	-0.489594	0.228863	-0.841379	-0.305089	-0.948909	-0.080582
01222														1.673559	-9.324595	-1.331701	-0.814500	0.215758	0.538551	-0.488430	0.245939	-0.837227	-0.313090	-0.944967	-0.094934
01223														2.324882	-8.662165	-1.955862	-0.810360	0.213582	0.545619	-0.489408	0.265292	-0.830723	-0.322176	-0.940214	-0.110454
01224														2.472581	-7.650956	-2.610969	-0.804223	0.212133	0.555180	-0.491028	0.289121	-0.821767	-0.334838	-0.933493	-0.128354
01225														2.460779	-6.475605	-3.290056	-0.796380	0.211291	0.566688	-0.493335	0.315074	-0.810771	-0.349858	-0.925248	-0.146682
01226														2.272431	-5.769391	-4.232845	-0.787491	0.209656	0.579570	-0.497601	0.338582	-0.798596	-0.363662	-0.917282	-0.162306
01227														2.262675	-5.340981	-4.390650	-0.777664	0.206677	0.593737	-0.505201	0.356661	-0.785853	-0.374181	-0.911086	-0.172949
01228														2.691620	-5.184559	-3.903834	-0.767066	0.203262	0.608518	-0.516117	0.367902	-0.773480	-0.381094	-0.907377	-0.177298
01229														3.336252	-5.400956	-3.308059	-0.755617	0.200295	0.623638	-0.530000	0.372504	-0.761801	-0.384893	-0.906158	-0.175314
01230														4.170942	-5.882538	-2.902391	-0.743567	0.197473	0.638837	-0.546289	0.371528	-0.750690	-0.385587	-0.907178	-0.168378
01231														5.214702	-6.228743	-2.419922	-0.731047	0.193525	0.654307	-0.564737	0.366568	-0.739392	-0.382938	-0.910042	-0.158688
01232														5.993706	-6.643082	-1.834056	-0.718278	0.187622	0.669981	-0.584582	0.359426	-0.727377	-0.377280	-0.914118	-0.148488
01233														6.217237	-7.335943	-1.164231	-0.704815	0.179911	0.686198	-0.605210	0.352127	-0.713952	-0.370077	-0.918498	-0.139301
01234														5.991133	-8.073218	-0.421796	-0.690320	0.171256	0.702944	-0.625544	0.346899	-0.698824	-0.363528	-0.922135	-0.132343
01235														5.834507	-8.698380	0.065843	-0.674514	0.162363	0.720187	-0.644740	0.345667	-0.681781	-0.359641	-0.924204	-0.128475
01236														6.147338	-8.993533	0.122178	-0.657740	0.153231	0.737494	-0.662040	0.349399	-0.663041	-0.359278	-0.924360	-0.128369
01237														6.710701	-8.885332	0.025142	-0.640243	0.143145	0.754718	-0.677493	0.357858	-0.642605	-0.362067	-0.922739	-0.132136
01238														7.238401	-8.111870	-0.171479	-0.622353	0.132074	0.771514	-0.691474	0.369122	-0.620977	-0.366798	-0.919948	-0.138399
01239														7.344557	-6.753292	-0.511680	-0.603678	0.120392	0.788085	-0.704608	0.381885	-0.598073	-0.372962	-0.916335	-0.145706
01240														7.220391	-5.306953	-1.076096	-0.584037	0.108399	0.804457	-0.717382	0.394797	-0.574019	-0.379820	-0.912351	-0.152813
01241														7.254331	-4.101648	-1.692638	-0.563032	0.095714	0.820874	-0.730895	0.405928	-0.548648	-0.385729	-0.908879	-0.158594
01242														7.515185	-3.297504	-2.250539	-0.540749	0.082161	0.837162	-0.745870	0.413321	-0.522345	-0.388933	-0.906871	-0.162222
01243														7.894469	-2.951099	-2.418211	-0.517100	0.067564	0.853254	-0.762583	0.416325	-0.495116	-0.388683	-0.906702	-0.163758
01244														8.260676	-3.075760	-2.352952	-0.492480	0.052417	0.868744	-0.780459	0.415145	-0.467481	-0.385159	-0.908244	-0.163541
01245														8.478751	-3.494738	-2.255926	-0.466868	0.036937	0.883555	-0.798987	0.410603	-0.439347	-0.379019	-0.911066	-0.162185
01246														8.534996	-4.028423	-2.133354	-0.440430	0.021209	0.897536	-0.817448	0.403889	-0.410674	-0.371215	-0.914562	-0.160547
01247														8.536763	-4.280914	-2.009347	-0.413052	0.004968	0.910694	-0.835541	0.395747	-0.381125	-0.362298	-0.918346	-0.159313
01248														8.573618	-4.344864	-1.986232	-0.384948	-0.011594	0.922865	-0.852851	0.386684	-0.350886	-0.352789	-0.922139	-0.158741
01249														8.665554	-4.188744	-1.866577	-0.355911	-0.028367	0.934089	-0.869280	0.376960	-0.319770	-0.343043	-0.925795	-0.158823
01250														8.678526	-3.820247	-1.766817	-0.326121	-0.045228	0.944245	-0.884837	0.366173	-0.288064	-0.332728	-0.929447	-0.159436
01251														8.795493	-3.291801	-1.674756	-0.295332	-0.062050	0.953377	-0.899562	0.354191	-0.255610	-0.321817	-0.933112	-0.160422
01252														8.967209	-2.689537	-1.628455	-0.263992	-0.078497	0.961325	-0.913313	0.340790	-0.222981	-0.310107	-0.936857	-0.161658
01253														9.245503	-2.170985	-1.659326	-0.232126	-0.094675	0.968067	-0.926151	0.325667	-0.190225	-0.297258	-0.940732	-0.163279
01254														9.515349	-1.797631	-1.534425	-0.200105	-0.110578	0.973515	-0.938138	0.308200	-0.157826	-0.282585	-0.944873	-0.165410
01255														9.745367	-1.652192	-1.352456	-0.167577	-0.126110	0.977760	-0.949184	0.288636	-0.125452	-0.266396	-0.949097	-0.168071
01256														10.041908	-1.533725	-1.218182	-0.134730	-0.141115	0.980783	-0.958958	0.267793	-0.093201	-0.249494	-0.953086	-0.171403
01257														10.277257	-1.556018	-0.991510	-0.101354	-0.155531	0.982618	-0.967311	0.246196	-0.060807	-0.232459	-0.956660	-0.175400
01258														10.559292	-1.665290	-0.929164	-0.067896	-0.169146	0.983250	-0.974099	0.224295	-0.028679	-0.215687	-0.959730	-0.179994
01259														10.816891	-1.854591	-0.810095	-0.034420	-0.181694	0.982753	-0.979174	0.202998	0.003237	-0.200085	-0.962174	-0.184897
01260														10.847563	-1.896884	-0.697627	-0.001515	-0.192922	0.981213	-0.982557	0.182748	0.034414	-0.185953	-0.964046	-0.189834
01261														10.587828	-1.772999	-0.672249	0.030798	-0.202837	0.978728	-0.984336	0.163906	0.064943	-0.173592	-0.965397	-0.194612
01262														10.418666	-1.462839	-0.824301	0.062073	-0.211604	0.975382	-0.984654	0.146720	0.094493	-0.163103	-0.966280	-0.199249
01263														10.476006	-1.157411	-0.871948	0.092360	-0.219485	0.971234	-0.983742	0.130759	0.123099	-0.154016	-0.966814	-0.203840
01264														10.607031	-0.671960	-0.812310	0.121252	-0.226505	0.966433	-0.981968	0.114894	0.150129	-0.145042	-0.967210	-0.208490
01265														10.619363	-0.238893	-0.756251	0.148953	-0.232670	0.961082	-0.979455	0.098905	0.175745	-0.135946	-0.967514	-0.213157
01266														10.424813	0.110672	-1.094748	0.175257	-0.237928	0.955340	-0.976358	0.082704	0.199710	-0.126527	-0.967755	-0.217808
01267														10.063501	0.431027	-1.633578	0.200539	-0.242023	0.949320	-0.972769	0.065751	0.222256	-0.116210	-0.968040	-0.222247
01268														9.430541	0.941850	-1.887781	0.224780	-0.245018	0.943101	-0.968799	0.047514	0.243249	-0.104411	-0.968354	-0.226693
01269														9.148915	2.028507	-1.974576	0.247778	-0.247587	0.936646	-0.964578	0.027299	0.262383	-0.090532	-0.968481	-0.232053
01270														9.211084	3.169450	-2.466159	0.268545	-0.249909	0.930284	-0.960434	0.004543	0.278469	-0.073818	-0.968259	-0.238801
01271														9.214406	3.359513	-2.677781	0.286786	-0.252060	0.924240	-0.956433	-0.020266	0.291248	-0.054681	-0.967499	-0.246890
01272														9.205989	2.657402	-2.493302	0.302454	-0.254220	0.918637	-0.952609	-0.047735	0.300429	-0.032524	-0.965968	-0.256610
01273														8.999931	1.823591	-2.065401	0.316127	-0.255575	0.913644	-0.948686	-0.077388	0.306604	-0.007655	-0.963687	-0.266925
01274														8.794314	1.564142	-1.353746	0.327959	-0.255553	0.909470	-0.944515	-0.107324	0.310439	0.018274	-0.960820	-0.276571
01275														8.961993	1.652480	-0.695565	0.337573	-0.255297	0.906018	-0.940266	-0.136549	0.311857	0.044100	-0.957172	-0.286142
01276														9.117242	1.451753	-0.257007	0.344246	-0.255760	0.903372	-0.936266	-0.165261	0.309993	0.070008	-0.952510	-0.296350
01277														8.692470	0.789001	-0.068927	0.348791	-0.256668	0.901369	-0.932243	-0.193806	0.305551	0.096266	-0.946869	-0.306875
01278														8.044907	0.244202	0.103799	0.351960	-0.256956	0.900054	-0.927912	-0.222037	0.299465	0.122897	-0.940571	-0.316581
01279														7.593016	-0.227199	0.085564	0.354171	-0.256476	0.899324	-0.923121	-0.249819	0.292297	0.149701	-0.933708	-0.325237
01280														7.308017	-0.901079	-0.019706	0.355148	-0.255796	0.899132	-0.918054	-0.276733	0.283894	0.176201	-0.926276	-0.333116
01281														6.891869	-1.883614	-0.032405	0.354910	-0.254790	0.899511	-0.912864	-0.302114	0.274603	0.201789	-0.918591	-0.339812
01282														6.393141	-3.167456	0.182380	0.353930	-0.253050	0.900388	-0.907556	-0.325550	0.265253	0.226000	-0.911034	-0.344879
01283														6.140320	-4.029148	0.643013	0.352661	-0.250032	0.901728	-0.902201	-0.346575	0.256748	0.248321	-0.904085	-0.347802
01284														7.126878	-3.769235	0.850917	0.350898	-0.245148	0.903755	-0.897225	-0.364299	0.249545	0.268062	-0.898437	-0.347785
01285														8.870156	-1.548892	-1.312878	0.348154	-0.238236	0.906660	-0.893302	-0.377580	0.243811	0.284252	-0.894805	-0.344273
01286														9.627635	-0.556540	-2.964650	0.342156	-0.233687	0.910121	-0.891385	-0.387135	0.235710	0.297257	-0.891918	-0.340765
01287														10.831024	-0.602868	-3.591569	0.331358	-0.232400	0.914435	-0.888348	-0.403369	0.219390	0.317869	-0.885033	-0.340112
01288														11.067217	1.671286	-5.196050	0.319320	-0.227560	0.919919	-0.882807	-0.424336	0.201470	0.344508	-0.876445	-0.336391
01289														12.124340	5.312639	-8.891767	0.313575	-0.217485	0.924322	-0.877637	-0.438010	0.194678	0.362523	-0.872266	-0.328222
01290														13.695294	6.036708	-10.897398	0.315285	-0.210383	0.925384	-0.873127	-0.446355	0.196003	0.371814	-0.869774	-0.324420
01291														14.267892	3.061050	-9.540739	0.313885	-0.207852	0.926430	-0.866413	-0.461790	0.189944	0.388336	-0.862292	-0.325035
01292														15.152657	1.350084	-5.392580	0.301554	-0.204319	0.931300	-0.861302	-0.477308	0.174172	0.408930	-0.854653	-0.319914
01293														17.135661	0.801209	-4.527158	0.283336	-0.198923	0.938163	-0.860737	-0.484138	0.157298	0.422910	-0.852080	-0.308394
01294														15.803681	-0.312889	-4.003174	0.267505	-0.194539	0.943714	-0.863878	-0.482239	0.145466	0.426797	-0.854166	-0.297059
01295														12.953132	-1.831371	-0.988517	0.256325	-0.195086	0.946699	-0.864667	-0.484042	0.134368	0.432028	-0.853021	-0.292756
01296														10.100738	-1.997783	1.052738	0.245881	-0.197751	0.948914	-0.861978	-0.492355	0.120749	0.443324	-0.847633	-0.291518
01297														7.738269	-2.464343	3.768490	0.233673	-0.199004	0.951732	-0.859415	-0.500076	0.106443	0.454756	-0.842806	-0.287881
01298														6.719528	-4.214330	4.300321	0.219614	-0.196475	0.955598	-0.859446	-0.502472	0.094206	0.461652	-0.841974	-0.279209
01299														7.224775	-6.277450	2.941682	0.205925	-0.189015	0.960140	-0.863393	-0.496912	0.087352	0.460594	-0.846966	-0.265521
01300														9.360088	-7.463344	0.894894	0.194118	-0.179922	0.964337	-0.869601	-0.486509	0.084277	0.453995	-0.854949	-0.250900
01301														12.408897	-6.590770	-0.694414	0.182800	-0.172459	0.967906	-0.875263	-0.476930	0.080326	0.447771	-0.861856	-0.238130
01302														14.109865	-4.648482	-1.126844	0.170564	-0.166649	0.971152	-0.879962	-0.469241	0.074027	0.443367	-0.867203	-0.226680
01303														12.986205	-3.021822	-0.842491	0.158508	-0.161686	0.974029	-0.884612	-0.461437	0.067359	0.438562	-0.872315	-0.216171
01304														10.408194	-2.104497	-1.514559	0.148035	-0.156509	0.976520	-0.889763	-0.452134	0.062419	0.431749	-0.878111	-0.206188
01305														8.424040	-1.939079	-2.309888	0.139476	-0.151130	0.978625	-0.894949	-0.442215	0.059259	0.423807	-0.884085	-0.196932
01306														7.813842	-1.584389	-3.080788	0.132456	-0.146071	0.980367	-0.898186	-0.435984	0.056393	0.419187	-0.888021	-0.188948
01307														8.503696	-0.627025	-3.282690	0.126697	-0.141664	0.981773	-0.898141	-0.436512	0.052918	0.421059	-0.888475	-0.182539
01308														9.798703	0.460028	-2.599018	0.122173	-0.138259	0.982832	-0.895251	-0.442862	0.048987	0.428486	-0.885866	-0.177882
01309														10.422770	0.745488	-1.081694	0.119006	-0.135684	0.983579	-0.891079	-0.451559	0.045522	0.437968	-0.881864	-0.174643
01310														10.005206	0.277320	0.484107	0.117225	-0.133427	0.984101	-0.886974	-0.459784	0.043317	0.446694	-0.877950	-0.172244
01311														9.209064	-0.413097	1.145518	0.115981	-0.130894	0.984589	-0.883883	-0.465801	0.042194	0.453100	-0.875155	-0.169719
01312														8.822496	-1.605062	0.995063	0.113914	-0.127458	0.985281	-0.882415	-0.468647	0.041395	0.456473	-0.874142	-0.165856
01313														8.791815	-2.593061	0.805398	0.110131	-0.122600	0.986327	-0.882789	-0.468029	0.040395	0.456677	-0.875167	-0.159775
01314														9.134469	-2.197720	0.030277	0.105253	-0.116497	0.987598	-0.885581	-0.462778	0.039792	0.452403	-0.878786	-0.151877
01315														10.324009	-0.802909	-0.830062	0.099782	-0.110693	0.988833	-0.891014	-0.452274	0.039282	0.442875	-0.884983	-0.143757
01316														10.867468	1.041226	-1.502832	0.094032	-0.106259	0.989882	-0.897065	-0.440266	0.037954	0.431779	-0.891557	-0.136720
01317														10.510453	3.149907	-2.172283	0.088531	-0.102943	0.990740	-0.902280	-0.429645	0.035985	0.421962	-0.897111	-0.130920
01318														10.188152	4.585766	-2.318175	0.083294	-0.100531	0.991441	-0.905679	-0.422660	0.033232	0.415702	-0.900695	-0.126254
01319														9.981775	5.206201	-2.085301	0.078097	-0.098573	0.992061	-0.906354	-0.421489	0.029471	0.415238	-0.901460	-0.122259
01320														9.811686	4.877608	-1.716415	0.073351	-0.096621	0.992615	-0.904391	-0.425950	0.025370	0.420353	-0.899573	-0.118626
01321														9.777562	3.257384	-0.925567	0.069540	-0.095362	0.993011	-0.900571	-0.434183	0.021371	0.429111	-0.895763	-0.116073
01322														9.700538	0.773374	-0.275509	0.066191	-0.094362	0.993335	-0.896257	-0.443185	0.017621	0.438569	-0.891450	-0.113907
01323														9.442481	-1.516687	0.019072	0.062486	-0.092495	0.993751	-0.892751	-0.450326	0.014221	0.446196	-0.888060	-0.110714
01324														9.458694	-2.693850	0.035304	0.058025	-0.089947	0.994255	-0.890357	-0.455135	0.010787	0.451550	-0.885868	-0.106494
01325														9.535490	-2.490707	-0.087556	0.052783	-0.087298	0.994783	-0.888901	-0.458046	0.006969	0.455048	-0.884631	-0.101776
01326														9.550259	-1.407865	-0.265699	0.047284	-0.084497	0.995301	-0.888449	-0.458965	0.003243	0.456534	-0.884427	-0.096773
01327														9.805258	-0.044140	-0.540920	0.042156	-0.081639	0.995770	-0.888305	-0.459254	-0.000046	0.457315	-0.884546	-0.091880
01328														10.110419	0.813700	-0.375757	0.037648	-0.079021	0.996162	-0.887255	-0.461269	-0.003059	0.459741	-0.883734	-0.087477
01329														10.138303	1.084552	-0.329314	0.033291	-0.076769	0.996493	-0.884642	-0.466228	-0.006363	0.465081	-0.881328	-0.083434
01330														9.859805	0.785376	-0.353330	0.029084	-0.074571	0.996792	-0.880952	-0.473106	-0.009689	0.472311	-0.877844	-0.079453
01331														9.695634	-0.161178	-0.532080	0.025308	-0.072238	0.997066	-0.876779	-0.480728	-0.012575	0.480226	-0.873889	-0.075503
01332														9.879778	-1.122101	-0.233486	0.022139	-0.070238	0.997285	-0.872533	-0.488324	-0.015023	0.488053	-0.869831	-0.072095
01333														9.890918	-1.801712	-0.013248	0.018879	-0.068342	0.997483	-0.868220	-0.495869	-0.017542	0.495820	-0.865704	-0.068697
01334														9.779865	-1.985373	0.027820	0.015626	-0.066472	0.997666	-0.864670	-0.501946	-0.019900	0.502098	-0.862341	-0.065320
01335														9.626032	-1.988999	0.125626	0.012712	-0.064632	0.997828	-0.861952	-0.506520	-0.021828	0.506831	-0.859802	-0.062148
01336														9.433778	-1.896420	0.086954	0.010194	-0.062465	0.997995	-0.859450	-0.510693	-0.023186	0.511118	-0.857491	-0.058892
01337														9.403204	-1.756904	-0.094703	0.007750	-0.059963	0.998171	-0.857016	-0.514718	-0.024267	0.515231	-0.855260	-0.055378
01338														9.659012	-1.644810	-0.282353	0.005400	-0.057330	0.998341	-0.854946	-0.518108	-0.025128	0.518689	-0.853392	-0.051812
01339														9.904223	-1.445422	-0.036263	0.003201	-0.054963	0.998483	-0.853162	-0.521001	-0.025945	0.521636	-0.851785	-0.048560
01340														10.035525	-1.323797	0.187109	0.001622	-0.052881	0.998600	-0.851214	-0.524156	-0.026374	0.524816	-0.849979	-0.045863
01341														9.890926	-1.335539	0.439075	0.000340	-0.050682	0.998715	-0.849606	-0.526755	-0.026442	0.527418	-0.848505	-0.043239
01342														9.711670	-1.460621	0.054362	-0.000827	-0.048186	0.998838	-0.848713	-0.528205	-0.026184	0.528853	-0.847749	-0.040459
01343														9.621001	-1.368114	-0.424132	-0.001930	-0.045609	0.998958	-0.848431	-0.528678	-0.025776	0.529303	-0.847596	-0.037676
01344														9.604773	-0.775926	-0.863995	-0.002762	-0.043315	0.999058	-0.848106	-0.529223	-0.025290	0.529820	-0.847376	-0.035274
01345														9.584286	-0.274483	-0.859233	-0.003550	-0.041163	0.999146	-0.847406	-0.530363	-0.024861	0.530934	-0.846771	-0.032999
01346														9.815987	-0.265131	-0.563966	-0.004189	-0.039080	0.999227	-0.846440	-0.531926	-0.024352	0.532467	-0.845888	-0.030850
01347														9.986562	-0.747121	-0.276262	-0.004771	-0.036978	0.999305	-0.845261	-0.533824	-0.023789	0.534332	-0.844787	-0.028709
01348														9.835770	-1.350604	-0.094278	-0.005095	-0.034902	0.999378	-0.844238	-0.535475	-0.023005	0.535944	-0.843830	-0.026737
01349														9.640686	-1.681873	0.008703	-0.005284	-0.032692	0.999452	-0.843788	-0.536225	-0.022001	0.536650	-0.843442	-0.024752
01350														9.542454	-1.573799	0.041771	-0.005346	-0.030343	0.999525	-0.843745	-0.536341	-0.020795	0.536718	-0.843455	-0.022734
01351														9.741264	-0.973576	0.298132	-0.005297	-0.028137	0.999590	-0.843486	-0.536794	-0.019580	0.537125	-0.843244	-0.020890
01352														9.867012	-0.509187	0.532436	-0.005090	-0.025899	0.999652	-0.842571	-0.538276	-0.018236	0.538561	-0.842370	-0.019082
01353														9.713540	-0.674510	0.697831	-0.004693	-0.023058	0.999723	-0.841513	-0.539987	-0.016404	0.540216	-0.841357	-0.016870
01354														9.634200	-1.439994	0.547455	-0.003861	-0.019728	0.999798	-0.840865	-0.541066	-0.013923	0.541231	-0.840749	-0.014499
01355														9.761246	-1.967808	0.503334	-0.002844	-0.016445	0.999861	-0.841018	-0.540889	-0.011288	0.540999	-0.840933	-0.012292
01356														9.827559	-1.543927	0.193826	-0.001870	-0.013475	0.999907	-0.841820	-0.539686	-0.008847	0.539756	-0.841758	-0.010334
01357														9.650884	-0.563178	-0.345909	-0.001183	-0.010485	0.999944	-0.843305	-0.537394	-0.006632	0.537434	-0.843266	-0.008206
01358														9.643895	0.519793	-0.493063	-0.000549	-0.007247	0.999974	-0.845431	-0.534067	-0.004335	0.534084	-0.845411	-0.005833
01359														10.223656	1.704755	-0.540241	0.000006	-0.004382	0.999990	-0.847056	-0.531499	-0.002324	0.531504	-0.847048	-0.003714
