// Start Time: Unknown
// Update Rate: 100.0Hz
// Filter Profile: human (46.1)
// Option Flags: AHS Disabled ICC Disabled 
// Firmware Version: 4.0.2
PacketCounter	SampleTimeFine	Year	Month	Day	Second	UTC_Nano	UTC_Year	UTC_Month	UTC_Day	UTC_Hour	UTC_Minute	UTC_Second	UTC_Valid	Acc_X	Acc_Y	Acc_Z	Mat[1][1]	Mat[2][1]	Mat[3][1]	Mat[1][2]	Mat[2][2]	Mat[3][2]	Mat[1][3]	Mat[2][3]	Mat[3][3]
00472														9.414882	0.727244	-2.823645	-0.051582	-0.283693	0.957527	-0.916950	0.393314	0.067134	-0.395654	-0.874541	-0.280421
00473														9.414598	0.727969	-2.824405	-0.051496	-0.283800	0.957500	-0.917032	0.393111	0.067197	-0.395474	-0.874598	-0.280497
00474														9.389103	0.750583	-2.833697	-0.051474	-0.283833	0.957491	-0.917116	0.392921	0.067171	-0.395284	-0.874672	-0.280533
00475														9.423357	0.693018	-2.804870	-0.051436	-0.283822	0.957497	-0.917201	0.392726	0.067141	-0.395090	-0.874764	-0.280522
00476														9.414271	0.729115	-2.825200	-0.051451	-0.283837	0.957491	-0.917294	0.392521	0.067067	-0.394872	-0.874851	-0.280557
00477														9.397965	0.715017	-2.813974	-0.051432	-0.283848	0.957489	-0.917364	0.392363	0.067039	-0.394712	-0.874918	-0.280572
00478														9.423208	0.693243	-2.805315	-0.051461	-0.283829	0.957493	-0.917429	0.392224	0.066959	-0.394557	-0.874986	-0.280578
00479														9.429410	0.727215	-2.806470	-0.051440	-0.283799	0.957503	-0.917489	0.392091	0.066924	-0.394421	-0.875056	-0.280552
00480														9.433345	0.673740	-2.815182	-0.051432	-0.283773	0.957511	-0.917535	0.391988	0.066887	-0.394314	-0.875110	-0.280532
00481														9.454863	0.706129	-2.796926	-0.051365	-0.283700	0.957536	-0.917559	0.391932	0.066902	-0.394269	-0.875159	-0.280443
00482														9.438888	0.692525	-2.784464	-0.051338	-0.283594	0.957569	-0.917563	0.391925	0.066880	-0.394262	-0.875197	-0.280336
00483														9.449250	0.673598	-2.793445	-0.051245	-0.283492	0.957604	-0.917527	0.391998	0.066948	-0.394358	-0.875197	-0.280199
00484														9.454670	0.692689	-2.763015	-0.051144	-0.283422	0.957631	-0.917492	0.392065	0.067036	-0.394453	-0.875190	-0.280089
00485														9.430622	0.732362	-2.801054	-0.051031	-0.283345	0.957659	-0.917429	0.392192	0.067152	-0.394614	-0.875158	-0.279963
00486														9.430874	0.733658	-2.799867	-0.051000	-0.283247	0.957690	-0.917380	0.392302	0.067174	-0.394731	-0.875140	-0.279853
00487														9.450310	0.678943	-2.788561	-0.050916	-0.283135	0.957727	-0.917331	0.392406	0.067239	-0.394856	-0.875130	-0.279709
00488														9.435420	0.682036	-2.806216	-0.050888	-0.283026	0.957761	-0.917275	0.392534	0.067259	-0.394990	-0.875108	-0.279588
00489														9.461034	0.661107	-2.796120	-0.050834	-0.282903	0.957800	-0.917229	0.392637	0.067292	-0.395105	-0.875101	-0.279446
00490														9.467550	0.695832	-2.795910	-0.050839	-0.282758	0.957843	-0.917140	0.392843	0.067290	-0.395309	-0.875056	-0.279300
00491														9.507401	0.656270	-2.736232	-0.050860	-0.282606	0.957887	-0.917034	0.393091	0.067283	-0.395552	-0.874993	-0.279153
00492														9.498660	0.692670	-2.755262	-0.050933	-0.282498	0.957915	-0.916937	0.393325	0.067241	-0.395767	-0.874923	-0.279066
00493														9.493757	0.675442	-2.783647	-0.050961	-0.282418	0.957937	-0.916845	0.393540	0.067248	-0.395978	-0.874853	-0.278988
00494														9.499051	0.693494	-2.753707	-0.051042	-0.282327	0.957959	-0.916764	0.393738	0.067194	-0.396156	-0.874792	-0.278925
00495														9.499210	0.693664	-2.753114	-0.051107	-0.282255	0.957977	-0.916689	0.393917	0.067157	-0.396319	-0.874735	-0.278872
00496														9.472970	0.699405	-2.731141	-0.051194	-0.282221	0.957982	-0.916620	0.394085	0.067113	-0.396468	-0.874670	-0.278864
00497														9.489215	0.714098	-2.742395	-0.051231	-0.282197	0.957988	-0.916540	0.394270	0.067127	-0.396649	-0.874595	-0.278843
00498														9.421435	0.727754	-2.717768	-0.051303	-0.282142	0.958000	-0.916460	0.394461	0.067094	-0.396824	-0.874527	-0.278809
00499														9.438754	0.758746	-2.759309	-0.051358	-0.282115	0.958005	-0.916375	0.394658	0.067093	-0.397013	-0.874446	-0.278792
00500														9.392157	0.749204	-2.785673	-0.051414	-0.282078	0.958013	-0.916322	0.394787	0.067065	-0.397129	-0.874400	-0.278772
00501														9.418540	0.744020	-2.807027	-0.051465	-0.282025	0.958026	-0.916274	0.394904	0.067030	-0.397232	-0.874364	-0.278735
00502														9.381252	0.752903	-2.744191	-0.051544	-0.281923	0.958051	-0.916252	0.394972	0.066932	-0.397273	-0.874366	-0.278671
00503														9.402720	0.729714	-2.794250	-0.051552	-0.281810	0.958084	-0.916234	0.395020	0.066890	-0.397313	-0.874381	-0.278568
00504														9.419280	0.743850	-2.804587	-0.051603	-0.281668	0.958123	-0.916232	0.395043	0.066787	-0.397311	-0.874417	-0.278458
00505														9.398357	0.767060	-2.752646	-0.051556	-0.281577	0.958153	-0.916249	0.395003	0.066780	-0.397277	-0.874464	-0.278359
00506														9.425006	0.761568	-2.773193	-0.051579	-0.281423	0.958197	-0.916296	0.394914	0.066663	-0.397166	-0.874554	-0.278236
00507														9.482090	0.751765	-2.755528	-0.051522	-0.281289	0.958239	-0.916330	0.394841	0.066636	-0.397096	-0.874630	-0.278096
00508														9.466211	0.737775	-2.742817	-0.051475	-0.281162	0.958279	-0.916390	0.394709	0.066584	-0.396962	-0.874730	-0.277972
00509														9.509075	0.746928	-2.774753	-0.051382	-0.281087	0.958306	-0.916450	0.394568	0.066596	-0.396836	-0.874818	-0.277876
00510														9.477944	0.790205	-2.712739	-0.051346	-0.280994	0.958335	-0.916529	0.394396	0.066535	-0.396659	-0.874925	-0.277790
00511														9.500469	0.783706	-2.793274	-0.051251	-0.280947	0.958354	-0.916618	0.394188	0.066540	-0.396465	-0.875034	-0.277724
00512														9.468165	0.755468	-2.769806	-0.051227	-0.280862	0.958380	-0.916725	0.393953	0.066451	-0.396221	-0.875167	-0.277654
00513														9.468313	0.755618	-2.769258	-0.051141	-0.280834	0.958393	-0.916831	0.393709	0.066444	-0.395988	-0.875286	-0.277612
00514														9.499781	0.768204	-2.761328	-0.051069	-0.280816	0.958402	-0.916957	0.393419	0.066413	-0.395703	-0.875422	-0.277588
00515														9.467304	0.740106	-2.738416	-0.050983	-0.280828	0.958403	-0.917119	0.393048	0.066383	-0.395341	-0.875585	-0.277591
00516														9.441984	0.762257	-2.747264	-0.050905	-0.280833	0.958406	-0.917260	0.392723	0.066356	-0.395023	-0.875729	-0.277589
00517														9.467184	0.741079	-2.738567	-0.050794	-0.280886	0.958396	-0.917401	0.392389	0.066379	-0.394709	-0.875862	-0.277616
00518														9.477195	0.722033	-2.748946	-0.050706	-0.280912	0.958393	-0.917542	0.392060	0.066371	-0.394392	-0.876001	-0.277628
00519														9.450725	0.728427	-2.727507	-0.050564	-0.280971	0.958383	-0.917687	0.391713	0.066423	-0.394074	-0.876137	-0.277650
00520														9.445556	0.711555	-2.756919	-0.050472	-0.281009	0.958377	-0.917835	0.391366	0.066417	-0.393740	-0.876280	-0.277673
00521														9.424180	0.680597	-2.774810	-0.050303	-0.281068	0.958368	-0.917970	0.391036	0.066500	-0.393448	-0.876408	-0.277683
00522														9.429084	0.699279	-2.745836	-0.050243	-0.281109	0.958360	-0.918102	0.390730	0.066478	-0.393147	-0.876532	-0.277718
00523														9.423928	0.682426	-2.775216	-0.050094	-0.281163	0.958352	-0.918211	0.390459	0.066558	-0.392911	-0.876635	-0.277727
00524														9.464337	0.659681	-2.747336	-0.050028	-0.281173	0.958352	-0.918320	0.390206	0.066545	-0.392665	-0.876745	-0.277728
00525														9.469300	0.678275	-2.718175	-0.049916	-0.281207	0.958348	-0.918419	0.389964	0.066591	-0.392447	-0.876841	-0.277731
00526														9.455146	0.697268	-2.767565	-0.049835	-0.281195	0.958356	-0.918518	0.389732	0.066589	-0.392227	-0.876948	-0.277705
00527														9.481562	0.692379	-2.788820	-0.049743	-0.281175	0.958366	-0.918614	0.389503	0.066596	-0.392012	-0.877057	-0.277667
00528														9.486653	0.710761	-2.759247	-0.049669	-0.281141	0.958380	-0.918718	0.389261	0.066577	-0.391778	-0.877175	-0.277623
00529														9.455314	0.699240	-2.766492	-0.049562	-0.281151	0.958383	-0.918803	0.389055	0.066618	-0.391594	-0.877263	-0.277605
00530														9.465397	0.680193	-2.776710	-0.049551	-0.281190	0.958372	-0.918874	0.388891	0.066593	-0.391428	-0.877323	-0.277648
00531														9.438944	0.686520	-2.755212	-0.049466	-0.281195	0.958375	-0.918914	0.388788	0.066644	-0.391345	-0.877367	-0.277626
00532														9.464179	0.665767	-2.746412	-0.049445	-0.281253	0.958359	-0.918965	0.388666	0.066651	-0.391227	-0.877403	-0.277679
00533														9.416470	0.640210	-2.742748	-0.049397	-0.281277	0.958354	-0.918965	0.388656	0.066704	-0.391232	-0.877399	-0.277682
00534														9.458946	0.649835	-2.775913	-0.049414	-0.281300	0.958347	-0.918939	0.388715	0.066716	-0.391291	-0.877366	-0.277705
00535														9.457758	0.634830	-2.745690	-0.049396	-0.281361	0.958330	-0.918880	0.388841	0.066799	-0.391432	-0.877291	-0.277744
00536														9.499123	0.628801	-2.748532	-0.049382	-0.281404	0.958318	-0.918819	0.388973	0.066873	-0.391578	-0.877218	-0.277767
00537														9.520119	0.662050	-2.731240	-0.049427	-0.281460	0.958299	-0.918741	0.389151	0.066910	-0.391756	-0.877121	-0.277823
00538														9.504679	0.665058	-2.750933	-0.049466	-0.281544	0.958272	-0.918669	0.389311	0.066959	-0.391918	-0.877023	-0.277904
00539														9.504346	0.666244	-2.751795	-0.049522	-0.281643	0.958240	-0.918576	0.389522	0.067015	-0.392130	-0.876898	-0.278001
00540														9.487705	0.653249	-2.741597	-0.049606	-0.281804	0.958189	-0.918476	0.389746	0.067075	-0.392352	-0.876746	-0.278164
00541														9.471962	0.656627	-2.762210	-0.049657	-0.281979	0.958135	-0.918375	0.389969	0.067171	-0.392583	-0.876591	-0.278327
00542														9.445051	0.663556	-2.742152	-0.049749	-0.282130	0.958085	-0.918262	0.390224	0.067229	-0.392835	-0.876429	-0.278483
00543														9.440355	0.718667	-2.734750	-0.049804	-0.282281	0.958038	-0.918146	0.390481	0.067323	-0.393100	-0.876266	-0.278623
00544														9.455041	0.718105	-2.717123	-0.049905	-0.282423	0.957991	-0.918020	0.390767	0.067378	-0.393381	-0.876093	-0.278771
00545														9.445334	0.755347	-2.738835	-0.049981	-0.282572	0.957943	-0.917899	0.391038	0.067456	-0.393653	-0.875924	-0.278917
00546														9.432894	0.688680	-2.737479	-0.050065	-0.282679	0.957907	-0.917782	0.391305	0.067506	-0.393917	-0.875770	-0.279028
00547														9.464796	0.718410	-2.761578	-0.050139	-0.282815	0.957863	-0.917678	0.391536	0.067568	-0.394148	-0.875623	-0.279164
00548														9.416938	0.692786	-2.758526	-0.050243	-0.282841	0.957850	-0.917570	0.391792	0.067561	-0.394387	-0.875500	-0.279211
00549														9.458329	0.686221	-2.761490	-0.050267	-0.282870	0.957840	-0.917492	0.391966	0.067606	-0.394565	-0.875412	-0.279234
00550														9.463194	0.704909	-2.732624	-0.050323	-0.282912	0.957825	-0.917426	0.392120	0.067620	-0.394712	-0.875330	-0.279283
00551														9.463040	0.705858	-2.732914	-0.050336	-0.282935	0.957817	-0.917360	0.392266	0.067663	-0.394863	-0.875257	-0.279299
00552														9.462891	0.706807	-2.733184	-0.050387	-0.282974	0.957803	-0.917299	0.392406	0.067676	-0.394998	-0.875182	-0.279344
00553														9.468625	0.741866	-2.735002	-0.050404	-0.283065	0.957775	-0.917231	0.392553	0.067746	-0.395154	-0.875087	-0.279422
00554														9.485487	0.773334	-2.777473	-0.050483	-0.283093	0.957763	-0.917173	0.392692	0.067728	-0.395279	-0.875015	-0.279470
00555														9.452881	0.745503	-2.755380	-0.050524	-0.283214	0.957725	-0.917145	0.392751	0.067759	-0.395338	-0.874950	-0.279591
00556														9.483918	0.758485	-2.748794	-0.050603	-0.283270	0.957704	-0.917116	0.392824	0.067731	-0.395396	-0.874899	-0.279669
00557														9.468400	0.761070	-2.768652	-0.050650	-0.283366	0.957673	-0.917094	0.392874	0.067744	-0.395441	-0.874845	-0.279772
00558														9.446881	0.729537	-2.787402	-0.050751	-0.283436	0.957647	-0.917082	0.392911	0.067689	-0.395456	-0.874806	-0.279875
00559														9.451603	0.747705	-2.759165	-0.050793	-0.283530	0.957617	-0.917065	0.392949	0.067702	-0.395490	-0.874758	-0.279975
00560														9.430123	0.716157	-2.777783	-0.050880	-0.283580	0.957598	-0.917063	0.392963	0.067644	-0.395483	-0.874736	-0.280055
00561														9.424828	0.699037	-2.807675	-0.050864	-0.283656	0.957576	-0.917071	0.392938	0.067685	-0.395467	-0.874722	-0.280119
00562														9.415372	0.735648	-2.828380	-0.050920	-0.283675	0.957567	-0.917076	0.392934	0.067638	-0.395448	-0.874718	-0.280160
00563														9.425394	0.716351	-2.839026	-0.050916	-0.283720	0.957554	-0.917117	0.392839	0.067631	-0.395353	-0.874746	-0.280207
00564														9.425262	0.716595	-2.839401	-0.050965	-0.283725	0.957550	-0.917167	0.392736	0.067553	-0.395231	-0.874791	-0.280239
00565														9.420084	0.753988	-2.800133	-0.050971	-0.283712	0.957554	-0.917237	0.392582	0.067493	-0.395067	-0.874864	-0.280242
00566														9.424322	0.700116	-2.809107	-0.051016	-0.283677	0.957562	-0.917317	0.392416	0.067381	-0.394877	-0.874950	-0.280241
00567														9.414116	0.719717	-2.798994	-0.051023	-0.283690	0.957558	-0.917376	0.392284	0.067338	-0.394738	-0.875005	-0.280266
00568														9.429439	0.662466	-2.848635	-0.051085	-0.283637	0.957570	-0.917429	0.392179	0.067222	-0.394606	-0.875069	-0.280251
00569														9.429470	0.662323	-2.848565	-0.051103	-0.283628	0.957572	-0.917468	0.392097	0.067174	-0.394513	-0.875109	-0.280257
00570														9.460801	0.674687	-2.841159	-0.051154	-0.283620	0.957571	-0.917510	0.392012	0.067095	-0.394409	-0.875149	-0.280277
00571														9.444594	0.660460	-2.829904	-0.051186	-0.283632	0.957566	-0.917539	0.391952	0.067050	-0.394338	-0.875172	-0.280306
00572														9.440224	0.714312	-2.821387	-0.051246	-0.283667	0.957552	-0.917566	0.391900	0.066992	-0.394268	-0.875184	-0.280367
00573														9.456179	0.728851	-2.833404	-0.051284	-0.283707	0.957539	-0.917578	0.391876	0.066964	-0.394235	-0.875182	-0.280421
00574														9.472096	0.743404	-2.845534	-0.051358	-0.283763	0.957518	-0.917595	0.391846	0.066908	-0.394186	-0.875177	-0.280504
00575														9.476828	0.761552	-2.817298	-0.051393	-0.283867	0.957485	-0.917612	0.391807	0.066907	-0.394142	-0.875161	-0.280616
00576														9.486592	0.742305	-2.828797	-0.051475	-0.283994	0.957443	-0.917642	0.391743	0.066863	-0.394060	-0.875149	-0.280770
00577														9.459816	0.748202	-2.808537	-0.051509	-0.284125	0.957403	-0.917668	0.391681	0.066866	-0.393994	-0.875134	-0.280907
00578														9.454282	0.730931	-2.839190	-0.051588	-0.284264	0.957357	-0.917706	0.391599	0.066824	-0.393896	-0.875125	-0.281072
00579														9.423255	0.735486	-2.878745	-0.051582	-0.284438	0.957306	-0.917757	0.391473	0.066866	-0.393779	-0.875125	-0.281238
00580														9.406592	0.722094	-2.868806	-0.051627	-0.284584	0.957260	-0.917778	0.391424	0.066869	-0.393725	-0.875099	-0.281393
00581														9.406055	0.722902	-2.870364	-0.051654	-0.284750	0.957209	-0.917805	0.391356	0.066893	-0.393657	-0.875076	-0.281561
00582														9.363966	0.731208	-2.869134	-0.051660	-0.284901	0.957164	-0.917834	0.391281	0.066928	-0.393588	-0.875060	-0.281706
00583														9.389788	0.726952	-2.892097	-0.051632	-0.285038	0.957125	-0.917858	0.391214	0.066992	-0.393536	-0.875046	-0.281824
00584														9.404624	0.726237	-2.874206	-0.051607	-0.285159	0.957090	-0.917895	0.391120	0.067038	-0.393454	-0.875048	-0.281930
00585														9.418757	0.709184	-2.825449	-0.051549	-0.285214	0.957077	-0.917949	0.390987	0.067075	-0.393335	-0.875090	-0.281967
00586														9.404158	0.728197	-2.875235	-0.051510	-0.285263	0.957064	-0.918018	0.390824	0.067081	-0.393179	-0.875147	-0.282008
00587														9.444635	0.705521	-2.848111	-0.051459	-0.285364	0.957037	-0.918096	0.390634	0.067112	-0.393002	-0.875199	-0.282093
00588														9.460486	0.720435	-2.860282	-0.051473	-0.285403	0.957024	-0.918158	0.390497	0.067071	-0.392857	-0.875247	-0.282145
00589														9.444202	0.706653	-2.849267	-0.051450	-0.285465	0.957007	-0.918210	0.390372	0.067079	-0.392737	-0.875283	-0.282202
00590														9.418563	0.728673	-2.858494	-0.051482	-0.285487	0.956999	-0.918266	0.390252	0.067020	-0.392604	-0.875329	-0.282243
00591														9.449790	0.741236	-2.851447	-0.051512	-0.285513	0.956989	-0.918301	0.390175	0.066977	-0.392516	-0.875355	-0.282286
00592														9.433626	0.727079	-2.840135	-0.051552	-0.285499	0.956992	-0.918335	0.390108	0.066911	-0.392433	-0.875389	-0.282294
00593														9.437869	0.673587	-2.849180	-0.051591	-0.285527	0.956981	-0.918344	0.390090	0.066880	-0.392405	-0.875388	-0.282337
00594														9.427509	0.693681	-2.839417	-0.051630	-0.285564	0.956968	-0.918355	0.390069	0.066851	-0.392374	-0.875385	-0.282388
00595														9.401872	0.715966	-2.848554	-0.051621	-0.285604	0.956956	-0.918347	0.390084	0.066883	-0.392396	-0.875365	-0.282420
00596														9.411186	0.680810	-2.828332	-0.051641	-0.285590	0.956960	-0.918345	0.390094	0.066860	-0.392398	-0.875366	-0.282415
00597														9.421241	0.717244	-2.770077	-0.051599	-0.285626	0.956951	-0.918353	0.390065	0.066907	-0.392383	-0.875367	-0.282432
00598														9.401593	0.718483	-2.848840	-0.051582	-0.285658	0.956942	-0.918370	0.390022	0.066923	-0.392346	-0.875375	-0.282458
00599														9.416737	0.717747	-2.830017	-0.051503	-0.285700	0.956934	-0.918386	0.389971	0.067000	-0.392319	-0.875385	-0.282468
00600														9.436914	0.734926	-2.782107	-0.051469	-0.285750	0.956921	-0.918409	0.389911	0.067035	-0.392269	-0.875395	-0.282504
00601														9.499510	0.705553	-2.836140	-0.051445	-0.285821	0.956901	-0.918409	0.389903	0.067086	-0.392273	-0.875376	-0.282559
00602														9.422049	0.755104	-2.832311	-0.051422	-0.285850	0.956894	-0.918432	0.389847	0.067103	-0.392223	-0.875391	-0.282581
00603														9.473711	0.729220	-2.845397	-0.051362	-0.285888	0.956885	-0.918444	0.389808	0.067164	-0.392203	-0.875396	-0.282594
00604														9.421849	0.757061	-2.832452	-0.051362	-0.285878	0.956889	-0.918466	0.389759	0.067144	-0.392151	-0.875421	-0.282588
00605														9.456723	0.700375	-2.803375	-0.051311	-0.285908	0.956882	-0.918505	0.389661	0.067175	-0.392066	-0.875454	-0.282602
00606														9.472728	0.715360	-2.814948	-0.051311	-0.285899	0.956885	-0.918547	0.389568	0.067140	-0.391967	-0.875499	-0.282601
00607														9.447149	0.737519	-2.823821	-0.051271	-0.285936	0.956876	-0.918596	0.389450	0.067156	-0.391858	-0.875539	-0.282627
00608														9.431760	0.739851	-2.843030	-0.051285	-0.285949	0.956871	-0.918668	0.389290	0.067097	-0.391686	-0.875606	-0.282657
00609														9.415527	0.725972	-2.831943	-0.051265	-0.286024	0.956850	-0.918727	0.389150	0.067103	-0.391551	-0.875644	-0.282728
00610														9.420563	0.688846	-2.871652	-0.051288	-0.286028	0.956848	-0.918786	0.389021	0.067041	-0.391409	-0.875700	-0.282751
00611														9.435732	0.687546	-2.852921	-0.051240	-0.286075	0.956836	-0.918827	0.388918	0.067074	-0.391320	-0.875730	-0.282781
00612														9.425381	0.708161	-2.842905	-0.051215	-0.286090	0.956833	-0.918848	0.388866	0.067088	-0.391273	-0.875749	-0.282789
00613														9.434736	0.673310	-2.822681	-0.051167	-0.286134	0.956823	-0.918870	0.388808	0.067134	-0.391229	-0.875760	-0.282814
00614														9.465977	0.686849	-2.815327	-0.051125	-0.286139	0.956823	-0.918888	0.388760	0.067161	-0.391192	-0.875780	-0.282805
00615														9.450638	0.689797	-2.834212	-0.051067	-0.286165	0.956818	-0.918894	0.388736	0.067220	-0.391186	-0.875782	-0.282807
00616														9.446322	0.689031	-2.893797	-0.051079	-0.286160	0.956820	-0.918884	0.388759	0.067214	-0.391206	-0.875773	-0.282805
00617														9.430238	0.675804	-2.882101	-0.051005	-0.286174	0.956819	-0.918868	0.388784	0.067299	-0.391255	-0.875758	-0.282786
00618														9.403191	0.666006	-2.829577	-0.051039	-0.286127	0.956831	-0.918838	0.388860	0.067270	-0.391321	-0.875739	-0.282751
00619														9.430294	0.677290	-2.881569	-0.051081	-0.286112	0.956834	-0.918793	0.388968	0.067258	-0.391421	-0.875696	-0.282746
00620														9.399050	0.665201	-2.888618	-0.051130	-0.286033	0.956855	-0.918756	0.389064	0.067209	-0.391502	-0.875679	-0.282687
00621														9.410011	0.717364	-2.860326	-0.051166	-0.285977	0.956870	-0.918725	0.389142	0.067176	-0.391569	-0.875663	-0.282645
00622														9.414588	0.664058	-2.868647	-0.051208	-0.285921	0.956884	-0.918682	0.389249	0.067145	-0.391664	-0.875634	-0.282603
00623														9.421236	0.714858	-2.900099	-0.051219	-0.285887	0.956893	-0.918631	0.389367	0.067158	-0.391782	-0.875592	-0.282568
00624														9.441602	0.731734	-2.851551	-0.051214	-0.285844	0.956907	-0.918590	0.389461	0.067175	-0.391879	-0.875565	-0.282520
00625														9.440903	0.716505	-2.820566	-0.051207	-0.285814	0.956916	-0.918542	0.389569	0.067204	-0.391992	-0.875526	-0.282481
00626														9.473795	0.762149	-2.873844	-0.051247	-0.285796	0.956919	-0.918495	0.389681	0.067194	-0.392097	-0.875483	-0.282472
00627														9.473774	0.763062	-2.873670	-0.051225	-0.285797	0.956920	-0.918456	0.389766	0.067243	-0.392193	-0.875444	-0.282457
00628														9.488297	0.745793	-2.823946	-0.051259	-0.285751	0.956932	-0.918446	0.389797	0.067200	-0.392211	-0.875446	-0.282427
00629														9.514601	0.740920	-2.845555	-0.051279	-0.285764	0.956927	-0.918439	0.389813	0.067192	-0.392224	-0.875434	-0.282447
00630														9.441611	0.736101	-2.850397	-0.051319	-0.285775	0.956922	-0.918442	0.389814	0.067159	-0.392214	-0.875430	-0.282472
00631														9.472725	0.749081	-2.843520	-0.051387	-0.285854	0.956894	-0.918419	0.389870	0.067145	-0.392258	-0.875379	-0.282568
00632														9.435357	0.703002	-2.850396	-0.051461	-0.285909	0.956874	-0.918416	0.389884	0.067103	-0.392256	-0.875355	-0.282647
00633														9.377421	0.696432	-2.836983	-0.051507	-0.286016	0.956840	-0.918387	0.389947	0.067125	-0.392316	-0.875292	-0.282758
00634														9.393148	0.711533	-2.849359	-0.051541	-0.286076	0.956820	-0.918393	0.389936	0.067114	-0.392298	-0.875277	-0.282828
00635														9.361628	0.699964	-2.857213	-0.051508	-0.286126	0.956807	-0.918382	0.389952	0.067172	-0.392328	-0.875254	-0.282859
00636														9.372320	0.752768	-2.829461	-0.051503	-0.286112	0.956811	-0.918390	0.389934	0.067166	-0.392310	-0.875266	-0.282845
00637														9.384070	0.766397	-2.900458	-0.051447	-0.286125	0.956810	-0.918393	0.389917	0.067219	-0.392310	-0.875270	-0.282835
00638														9.383228	0.751257	-2.869996	-0.051431	-0.286157	0.956801	-0.918410	0.389874	0.067235	-0.392272	-0.875278	-0.282861
00639														9.414444	0.764829	-2.862612	-0.051353	-0.286173	0.956801	-0.918439	0.389796	0.067291	-0.392214	-0.875308	-0.282850
00640														9.392664	0.717549	-2.849447	-0.051292	-0.286155	0.956810	-0.918473	0.389712	0.067315	-0.392143	-0.875351	-0.282815
00641														9.433589	0.695148	-2.821219	-0.051212	-0.286116	0.956825	-0.918529	0.389578	0.067332	-0.392023	-0.875423	-0.282757
00642														9.449698	0.710501	-2.832232	-0.051111	-0.286105	0.956834	-0.918591	0.389424	0.067374	-0.391890	-0.875496	-0.282717
00643														9.465785	0.726094	-2.843250	-0.050993	-0.286087	0.956846	-0.918638	0.389302	0.067440	-0.391796	-0.875556	-0.282662
00644														9.455575	0.747061	-2.832461	-0.050869	-0.286063	0.956860	-0.918703	0.389138	0.067496	-0.391659	-0.875637	-0.282602
00645														9.466651	0.744814	-2.872685	-0.050757	-0.286073	0.956862	-0.918773	0.388964	0.067552	-0.391510	-0.875711	-0.282579
00646														9.470892	0.747488	-2.812779	-0.050695	-0.286058	0.956870	-0.918847	0.388790	0.067549	-0.391345	-0.875793	-0.282553
00647														9.481191	0.728728	-2.822719	-0.050593	-0.286075	0.956871	-0.918925	0.388597	0.067592	-0.391173	-0.875873	-0.282542
00648														9.433862	0.702706	-2.818434	-0.050534	-0.286074	0.956874	-0.919000	0.388419	0.067591	-0.391004	-0.875952	-0.282531
00649														9.449059	0.701940	-2.799481	-0.050430	-0.286130	0.956863	-0.919076	0.388230	0.067653	-0.390841	-0.876018	-0.282553
00650														9.427953	0.670651	-2.817253	-0.050408	-0.286162	0.956855	-0.919138	0.388084	0.067641	-0.390697	-0.876072	-0.282585
00651														9.427729	0.671577	-2.817783	-0.050333	-0.286274	0.956825	-0.919215	0.387892	0.067699	-0.390526	-0.876120	-0.282671
00652														9.427488	0.672514	-2.818367	-0.050308	-0.286318	0.956813	-0.919285	0.387729	0.067690	-0.390365	-0.876178	-0.282713
00653														9.417013	0.692992	-2.808542	-0.050242	-0.286367	0.956802	-0.919351	0.387566	0.067722	-0.390217	-0.876234	-0.282744
00654														9.416876	0.693794	-2.808805	-0.050219	-0.286399	0.956793	-0.919413	0.387420	0.067710	-0.390073	-0.876288	-0.282775
00655														9.443115	0.689270	-2.830604	-0.050145	-0.286417	0.956792	-0.919482	0.387254	0.067735	-0.389922	-0.876356	-0.282774
00656														9.402219	0.713082	-2.858262	-0.050123	-0.286397	0.956799	-0.919546	0.387106	0.067701	-0.389772	-0.876428	-0.282758
00657														9.427804	0.692339	-2.849347	-0.050064	-0.286422	0.956795	-0.919598	0.386979	0.067727	-0.389658	-0.876476	-0.282767
00658														9.412490	0.694736	-2.868267	-0.050053	-0.286407	0.956800	-0.919651	0.386858	0.067693	-0.389534	-0.876534	-0.282758
00659														9.458327	0.690338	-2.811178	-0.049983	-0.286410	0.956802	-0.919672	0.386800	0.067741	-0.389493	-0.876559	-0.282737
00660														9.427040	0.678726	-2.818374	-0.049956	-0.286411	0.956804	-0.919692	0.386752	0.067753	-0.389451	-0.876580	-0.282730
00661														9.443020	0.694107	-2.829739	-0.049899	-0.286408	0.956807	-0.919693	0.386740	0.067802	-0.389454	-0.876586	-0.282705
00662														9.442350	0.679078	-2.798801	-0.049860	-0.286375	0.956819	-0.919695	0.386731	0.067823	-0.389455	-0.876600	-0.282660
00663														9.473650	0.692790	-2.791029	-0.049811	-0.286374	0.956822	-0.919691	0.386732	0.067870	-0.389470	-0.876601	-0.282639
00664														9.474378	0.710027	-2.821221	-0.049769	-0.286352	0.956831	-0.919681	0.386751	0.067907	-0.389500	-0.876599	-0.282600
00665														9.464022	0.730990	-2.810781	-0.049703	-0.286366	0.956830	-0.919662	0.386780	0.067986	-0.389552	-0.876582	-0.282584
00666														9.478506	0.714518	-2.761214	-0.049681	-0.286394	0.956823	-0.919645	0.386814	0.068030	-0.389595	-0.876558	-0.282598
00667														9.431874	0.704609	-2.787645	-0.049685	-0.286408	0.956819	-0.919623	0.386863	0.068048	-0.389647	-0.876531	-0.282609
00668														9.426915	0.687603	-2.816642	-0.049666	-0.286398	0.956822	-0.919610	0.386891	0.068071	-0.389681	-0.876522	-0.282590
00669														9.468495	0.681480	-2.819278	-0.049662	-0.286411	0.956819	-0.919614	0.386880	0.068077	-0.389672	-0.876523	-0.282601
00670														9.437206	0.669753	-2.826564	-0.049623	-0.286404	0.956823	-0.919605	0.386895	0.068116	-0.389699	-0.876519	-0.282577
00671														9.421894	0.672555	-2.845393	-0.049606	-0.286422	0.956819	-0.919588	0.386929	0.068151	-0.389741	-0.876498	-0.282584
00672														9.411459	0.693150	-2.835270	-0.049615	-0.286427	0.956817	-0.919566	0.386979	0.068161	-0.389791	-0.876474	-0.282588
00673														9.442743	0.706724	-2.827539	-0.049575	-0.286379	0.956833	-0.919554	0.387003	0.068186	-0.389824	-0.876479	-0.282526
00674														9.417179	0.728880	-2.835908	-0.049592	-0.286349	0.956841	-0.919530	0.387061	0.068175	-0.389878	-0.876463	-0.282502
00675														9.442187	0.692293	-2.796111	-0.049555	-0.286316	0.956853	-0.919500	0.387126	0.068218	-0.389955	-0.876445	-0.282451
00676														9.431883	0.713036	-2.785474	-0.049528	-0.286287	0.956863	-0.919470	0.387190	0.068253	-0.390027	-0.876427	-0.282409
00677														9.442980	0.710628	-2.825768	-0.049499	-0.286283	0.956866	-0.919443	0.387247	0.068297	-0.390096	-0.876403	-0.282389
00678														9.427026	0.697284	-2.813887	-0.049477	-0.286258	0.956874	-0.919428	0.387279	0.068318	-0.390134	-0.876397	-0.282355
00679														9.469363	0.707438	-2.846832	-0.049448	-0.286254	0.956877	-0.919420	0.387293	0.068348	-0.390156	-0.876392	-0.282338
00680														9.438134	0.695812	-2.853940	-0.049412	-0.286234	0.956885	-0.919403	0.387325	0.068385	-0.390200	-0.876384	-0.282303
00681														9.437475	0.680750	-2.823036	-0.049381	-0.286216	0.956892	-0.919394	0.387342	0.068412	-0.390225	-0.876383	-0.282272
00682														9.422245	0.683435	-2.841635	-0.049359	-0.286191	0.956900	-0.919379	0.387374	0.068433	-0.390264	-0.876376	-0.282238
00683														9.443133	0.716737	-2.823714	-0.049348	-0.286171	0.956907	-0.919345	0.387452	0.068460	-0.390346	-0.876349	-0.282209
00684														9.453574	0.698063	-2.833437	-0.049335	-0.286137	0.956918	-0.919317	0.387515	0.068478	-0.390414	-0.876332	-0.282168
00685														9.427979	0.720359	-2.841812	-0.049305	-0.286108	0.956928	-0.919300	0.387549	0.068506	-0.390456	-0.876327	-0.282127
00686														9.428069	0.721310	-2.841273	-0.049269	-0.286063	0.956943	-0.919295	0.387558	0.068524	-0.390473	-0.876337	-0.282071
00687														9.427463	0.706143	-2.810211	-0.049220	-0.286037	0.956954	-0.919302	0.387536	0.068552	-0.390462	-0.876355	-0.282029
00688														9.422641	0.689211	-2.838925	-0.049170	-0.286025	0.956960	-0.919324	0.387479	0.068577	-0.390416	-0.876384	-0.282002
00689														9.438599	0.704800	-2.850196	-0.049095	-0.286034	0.956961	-0.919337	0.387437	0.068639	-0.390396	-0.876400	-0.281983
00690														9.438604	0.705812	-2.849929	-0.049073	-0.286011	0.956969	-0.919362	0.387380	0.068633	-0.390340	-0.876433	-0.281958
00691														9.381087	0.699260	-2.835198	-0.048986	-0.285977	0.956984	-0.919371	0.387347	0.068690	-0.390329	-0.876458	-0.281893
00692														9.339612	0.707386	-2.831673	-0.048886	-0.285910	0.957009	-0.919396	0.387281	0.068738	-0.390284	-0.876509	-0.281797
00693														9.208838	0.679226	-2.790118	-0.048717	-0.285750	0.957065	-0.919404	0.387247	0.068820	-0.390286	-0.876577	-0.281586
00694														9.079364	0.667444	-2.777080	-0.048416	-0.285307	0.957212	-0.919385	0.387273	0.068928	-0.390369	-0.876709	-0.281057
00695														8.949393	0.623924	-2.699874	-0.047933	-0.284549	0.957462	-0.919291	0.387461	0.069127	-0.390649	-0.876873	-0.280156
00696														9.004152	0.599979	-2.703156	-0.047446	-0.283587	0.957772	-0.919105	0.387869	0.069314	-0.391146	-0.877004	-0.279049
00697														9.236160	0.529580	-2.726044	-0.046945	-0.282717	0.958054	-0.918818	0.388492	0.069619	-0.391879	-0.877009	-0.278003
00698														9.560246	0.473497	-2.915817	-0.046537	-0.281964	0.958296	-0.918466	0.389267	0.069933	-0.392752	-0.876908	-0.277090
00699														9.894148	0.541199	-3.040649	-0.046226	-0.281340	0.958494	-0.918095	0.390091	0.070223	-0.393656	-0.876742	-0.276329
00700														10.173463	0.674623	-3.055112	-0.045978	-0.280914	0.958631	-0.917716	0.390924	0.070539	-0.394567	-0.876508	-0.275773
00701														10.288405	0.812638	-3.190880	-0.045863	-0.280662	0.958710	-0.917353	0.391729	0.070794	-0.395424	-0.876229	-0.275432
00702														10.283590	0.940383	-3.141226	-0.045969	-0.280566	0.958733	-0.917060	0.392402	0.070863	-0.396090	-0.875958	-0.275335
00703														10.174140	1.047119	-3.107234	-0.046352	-0.280650	0.958690	-0.916852	0.392918	0.070695	-0.396528	-0.875700	-0.275527
00704														9.977979	0.956702	-3.026097	-0.047059	-0.280877	0.958589	-0.916731	0.393284	0.070232	-0.396724	-0.875463	-0.275996
00705														9.781292	0.863643	-2.947419	-0.048016	-0.281212	0.958444	-0.916684	0.393517	0.069536	-0.396718	-0.875251	-0.276677
00706														9.536268	0.725450	-2.835857	-0.049075	-0.281571	0.958285	-0.916706	0.393612	0.068708	-0.396538	-0.875093	-0.277434
00707														9.265510	0.608187	-2.733241	-0.050168	-0.281946	0.958118	-0.916745	0.393670	0.067843	-0.396310	-0.874946	-0.278222
00708														8.985261	0.526915	-2.650080	-0.051266	-0.282222	0.957978	-0.916770	0.393766	0.066943	-0.396112	-0.874814	-0.278919
00709														8.747702	0.455812	-2.598618	-0.052207	-0.282449	0.957861	-0.916802	0.393825	0.066160	-0.395916	-0.874714	-0.279510
00710														8.584136	0.479634	-2.533202	-0.052945	-0.282659	0.957758	-0.916834	0.393850	0.065553	-0.395742	-0.874635	-0.280003
00711														8.588156	0.565151	-2.469974	-0.053421	-0.282947	0.957647	-0.916881	0.393799	0.065205	-0.395570	-0.874564	-0.280466
00712														8.714536	0.663060	-2.534946	-0.053604	-0.283289	0.957535	-0.916963	0.393622	0.065122	-0.395356	-0.874533	-0.280866
00713														8.954563	0.745574	-2.566920	-0.053489	-0.283678	0.957427	-0.917092	0.393292	0.065293	-0.395071	-0.874556	-0.281196
00714														9.216964	0.823511	-2.679071	-0.053106	-0.283938	0.957371	-0.917264	0.392835	0.065626	-0.394723	-0.874677	-0.281308
00715														9.425324	0.809255	-2.723343	-0.052521	-0.284086	0.957359	-0.917494	0.392226	0.066055	-0.394266	-0.874902	-0.281247
00716														9.609298	0.833652	-2.804914	-0.051792	-0.284066	0.957405	-0.917725	0.391602	0.066544	-0.393824	-0.875188	-0.280976
00717														9.693658	0.770384	-2.875767	-0.050997	-0.283996	0.957468	-0.917970	0.390939	0.067064	-0.393357	-0.875507	-0.280636
00718														9.767754	0.726764	-2.936300	-0.050262	-0.283972	0.957514	-0.918206	0.390301	0.067554	-0.392902	-0.875800	-0.280362
00719														9.846597	0.700882	-2.968146	-0.049555	-0.283987	0.957547	-0.918433	0.389680	0.068040	-0.392459	-0.876071	-0.280134
00720														9.811444	0.763286	-2.995241	-0.048952	-0.284022	0.957567	-0.918649	0.389100	0.068448	-0.392030	-0.876318	-0.279964
00721														9.760277	0.810262	-3.011130	-0.048428	-0.284004	0.957599	-0.918869	0.388526	0.068759	-0.391580	-0.876578	-0.279778
00722														9.682798	0.860703	-3.005379	-0.048096	-0.283898	0.957647	-0.919093	0.387978	0.068858	-0.391095	-0.876855	-0.279589
00723														9.607906	0.878753	-2.879291	-0.047937	-0.283778	0.957691	-0.919303	0.387490	0.068803	-0.390621	-0.877110	-0.279453
00724														9.580507	0.779670	-2.833881	-0.047943	-0.283752	0.957698	-0.919510	0.387028	0.068640	-0.390133	-0.877322	-0.279468
00725														9.577720	0.642344	-2.750438	-0.048120	-0.283831	0.957666	-0.919661	0.386711	0.068403	-0.389755	-0.877436	-0.279637
00726														9.538715	0.473780	-2.704723	-0.048415	-0.283973	0.957609	-0.919739	0.386571	0.068135	-0.389532	-0.877452	-0.279897
00727														9.479305	0.360697	-2.669779	-0.048718	-0.284126	0.957548	-0.919729	0.386632	0.067929	-0.389520	-0.877376	-0.280155
00728														9.373282	0.308361	-2.623293	-0.049064	-0.284209	0.957506	-0.919630	0.386903	0.067718	-0.389708	-0.877229	-0.280351
00729														9.278502	0.253180	-2.617139	-0.049345	-0.284325	0.957457	-0.919440	0.387367	0.067646	-0.390121	-0.876987	-0.280535
00730														9.225842	0.279743	-2.606308	-0.049673	-0.284428	0.957410	-0.919136	0.388097	0.067609	-0.390797	-0.876631	-0.280705
00731														9.261296	0.311208	-2.571443	-0.049964	-0.284525	0.957366	-0.918733	0.389037	0.067673	-0.391705	-0.876183	-0.280841
00732														9.345464	0.331127	-2.639508	-0.050320	-0.284636	0.957314	-0.918258	0.390146	0.067734	-0.392772	-0.875653	-0.281001
00733														9.408632	0.390452	-2.687474	-0.050691	-0.284773	0.957254	-0.917733	0.391364	0.067829	-0.393951	-0.875065	-0.281184
00734														9.450915	0.489044	-2.714907	-0.051087	-0.284875	0.957202	-0.917185	0.392633	0.067901	-0.395172	-0.874463	-0.281342
00735														9.483538	0.623357	-2.762137	-0.051496	-0.284964	0.957154	-0.916637	0.393901	0.067956	-0.396389	-0.873864	-0.281492
00736														9.458543	0.749771	-2.795182	-0.051959	-0.285104	0.957087	-0.916118	0.395105	0.067962	-0.397526	-0.873274	-0.281719
00737														9.433495	0.875742	-2.828396	-0.052466	-0.285247	0.957017	-0.915629	0.396247	0.067908	-0.398586	-0.872710	-0.281970
00738														9.412593	0.931498	-2.840575	-0.052935	-0.285447	0.956931	-0.915221	0.397197	0.067854	-0.399459	-0.872212	-0.282273
00739														9.361070	1.062227	-2.852358	-0.053364	-0.285673	0.956840	-0.914892	0.397967	0.067792	-0.400157	-0.871787	-0.282597
00740														9.339576	1.172626	-2.795519	-0.053720	-0.285844	0.956769	-0.914628	0.398583	0.067726	-0.400711	-0.871450	-0.282853
00741														9.282163	1.252717	-2.774849	-0.053955	-0.285973	0.956717	-0.914496	0.398897	0.067661	-0.400981	-0.871264	-0.283044
00742														9.324174	1.333538	-2.770537	-0.054051	-0.286014	0.956700	-0.914501	0.398898	0.067588	-0.400956	-0.871250	-0.283121
00743														9.339312	1.331874	-2.752020	-0.053953	-0.286017	0.956704	-0.914664	0.398529	0.067563	-0.400599	-0.871418	-0.283111
00744														9.365649	1.327381	-2.773547	-0.053726	-0.285947	0.956738	-0.914958	0.397858	0.067531	-0.399956	-0.871747	-0.283005
00745														9.365779	1.257354	-2.810966	-0.053222	-0.285844	0.956797	-0.915370	0.396889	0.067654	-0.399081	-0.872223	-0.282776
00746														9.355151	1.048945	-2.883421	-0.052538	-0.285665	0.956888	-0.915873	0.395694	0.067842	-0.398015	-0.872824	-0.282422
00747														9.381137	0.872036	-2.917462	-0.051609	-0.285453	0.957002	-0.916393	0.394422	0.068229	-0.396938	-0.873469	-0.281943
00748														9.459660	0.670411	-2.963242	-0.050520	-0.285263	0.957117	-0.916934	0.393071	0.068753	-0.395827	-0.874140	-0.281425
00749														9.569683	0.482921	-3.001040	-0.049369	-0.285177	0.957203	-0.917438	0.391779	0.069404	-0.394804	-0.874748	-0.280974
00750														9.690588	0.364441	-3.041832	-0.048294	-0.285213	0.957247	-0.917895	0.390588	0.070068	-0.393873	-0.875268	-0.280659
00751														9.753987	0.325945	-3.061885	-0.047329	-0.285342	0.957257	-0.918286	0.389550	0.070716	-0.393078	-0.875689	-0.280462
00752														9.753700	0.316171	-3.029588	-0.046586	-0.285502	0.957245	-0.918627	0.388656	0.071212	-0.392371	-0.876034	-0.280376
00753														9.767699	0.374865	-2.941695	-0.046088	-0.285738	0.957199	-0.918897	0.387951	0.071566	-0.391795	-0.876269	-0.280444
00754														9.625635	0.366880	-2.893090	-0.045939	-0.286023	0.957121	-0.919111	0.387426	0.071663	-0.391311	-0.876409	-0.280685
00755														9.530248	0.384396	-2.849760	-0.046008	-0.286311	0.957031	-0.919247	0.387112	0.071619	-0.390983	-0.876453	-0.281001
00756														9.387852	0.372867	-2.802751	-0.046266	-0.286525	0.956955	-0.919335	0.386942	0.071409	-0.390747	-0.876458	-0.281314
00757														9.260274	0.429863	-2.698597	-0.046681	-0.286630	0.956903	-0.919360	0.386947	0.071056	-0.390638	-0.876422	-0.281580
00758														9.130072	0.428747	-2.721671	-0.047144	-0.286609	0.956887	-0.919328	0.387097	0.070651	-0.390657	-0.876362	-0.281737
00759														9.036058	0.458165	-2.707021	-0.047645	-0.286441	0.956913	-0.919223	0.387427	0.070204	-0.390843	-0.876272	-0.281762
00760														9.037517	0.487049	-2.767766	-0.048123	-0.286172	0.956969	-0.919072	0.387864	0.069769	-0.391139	-0.876166	-0.281678
00761														9.070468	0.529379	-2.819904	-0.048503	-0.285813	0.957057	-0.918873	0.388399	0.069423	-0.391562	-0.876046	-0.281464
00762														9.198278	0.555729	-2.916909	-0.048810	-0.285381	0.957170	-0.918652	0.388973	0.069127	-0.392041	-0.875932	-0.281152
00763														9.376811	0.596372	-2.926873	-0.048886	-0.284973	0.957288	-0.918418	0.389538	0.069060	-0.392580	-0.875814	-0.280768
00764														9.560799	0.672702	-2.937423	-0.048861	-0.284568	0.957410	-0.918163	0.390131	0.069100	-0.393179	-0.875682	-0.280342
00765														9.657327	0.761867	-3.002157	-0.048754	-0.284257	0.957508	-0.917898	0.390727	0.069259	-0.393811	-0.875517	-0.279969
00766														9.763509	0.816099	-3.047059	-0.048635	-0.284026	0.957582	-0.917651	0.391271	0.069447	-0.394399	-0.875349	-0.279666
00767														9.763617	0.890580	-3.006117	-0.048488	-0.283893	0.957629	-0.917432	0.391743	0.069681	-0.394927	-0.875181	-0.279447
00768														9.763287	0.877374	-2.973620	-0.048391	-0.283807	0.957660	-0.917227	0.392187	0.069879	-0.395414	-0.875010	-0.279294
00769														9.668136	0.880087	-2.896138	-0.048391	-0.283794	0.957663	-0.917032	0.392620	0.070011	-0.395866	-0.874820	-0.279248
00770														9.544276	0.847129	-2.956418	-0.048386	-0.283799	0.957662	-0.916847	0.393028	0.070148	-0.396296	-0.874635	-0.279218
00771														9.463520	0.830813	-2.830264	-0.048462	-0.283764	0.957669	-0.916694	0.393380	0.070173	-0.396641	-0.874489	-0.279188
00772														9.390090	0.808987	-2.804424	-0.048555	-0.283707	0.957681	-0.916590	0.393629	0.070138	-0.396870	-0.874395	-0.279156
00773														9.322524	0.749419	-2.818306	-0.048685	-0.283678	0.957683	-0.916513	0.393821	0.070063	-0.397031	-0.874318	-0.279168
00774														9.336366	0.714784	-2.738584	-0.048857	-0.283640	0.957685	-0.916441	0.394011	0.069942	-0.397177	-0.874245	-0.279189
00775														9.319781	0.683393	-2.696885	-0.049021	-0.283591	0.957692	-0.916375	0.394186	0.069820	-0.397309	-0.874181	-0.279199
00776														9.315919	0.681463	-2.756254	-0.049168	-0.283474	0.957719	-0.916326	0.394325	0.069673	-0.397403	-0.874157	-0.279142
00777														9.314871	0.736063	-2.687040	-0.049267	-0.283415	0.957731	-0.916276	0.394456	0.069594	-0.397507	-0.874117	-0.279119
00778														9.362746	0.779928	-2.720682	-0.049312	-0.283322	0.957756	-0.916256	0.394512	0.069528	-0.397545	-0.874122	-0.279050
00779														9.394804	0.809465	-2.742544	-0.049301	-0.283219	0.957787	-0.916243	0.394547	0.069506	-0.397578	-0.874139	-0.278949
00780														9.462676	0.869880	-2.727341	-0.049245	-0.283125	0.957818	-0.916265	0.394498	0.069503	-0.397535	-0.874192	-0.278844
00781														9.531107	0.859165	-2.750349	-0.049160	-0.283009	0.957856	-0.916294	0.394428	0.069512	-0.397478	-0.874261	-0.278710
00782														9.521612	0.895785	-2.768997	-0.049064	-0.282868	0.957903	-0.916347	0.394307	0.069503	-0.397368	-0.874361	-0.278552
00783														9.527199	0.842844	-2.776616	-0.048968	-0.282749	0.957943	-0.916427	0.394124	0.069484	-0.397195	-0.874482	-0.278418
00784														9.496368	0.830601	-2.783089	-0.048864	-0.282671	0.957972	-0.916531	0.393883	0.069474	-0.396967	-0.874616	-0.278323
00785														9.470824	0.852472	-2.790904	-0.048767	-0.282588	0.958001	-0.916628	0.393660	0.069460	-0.396755	-0.874743	-0.278226
00786														9.450539	0.820360	-2.807839	-0.048739	-0.282486	0.958032	-0.916733	0.393431	0.069370	-0.396516	-0.874879	-0.278140
00787														9.424181	0.737533	-2.793383	-0.048694	-0.282422	0.958054	-0.916852	0.393166	0.069301	-0.396246	-0.875019	-0.278084
00788														9.393289	0.724389	-2.800362	-0.048711	-0.282318	0.958083	-0.916963	0.392932	0.069165	-0.395988	-0.875158	-0.278015
00789														9.398106	0.654264	-2.778068	-0.048662	-0.282210	0.958118	-0.917052	0.392735	0.069103	-0.395788	-0.875281	-0.277913
00790														9.360707	0.662286	-2.714508	-0.048639	-0.282031	0.958172	-0.917124	0.392585	0.068999	-0.395623	-0.875406	-0.277752
00791														9.357356	0.660662	-2.772390	-0.048594	-0.281833	0.958232	-0.917179	0.392470	0.068920	-0.395501	-0.875521	-0.277563
00792														9.373248	0.746589	-2.743402	-0.048544	-0.281585	0.958308	-0.917222	0.392386	0.068834	-0.395409	-0.875639	-0.277324
00793														9.414812	0.724106	-2.713291	-0.048428	-0.281413	0.958364	-0.917248	0.392321	0.068850	-0.395361	-0.875723	-0.277125
00794														9.420779	0.758659	-2.712132	-0.048378	-0.281137	0.958447	-0.917261	0.392303	0.068774	-0.395337	-0.875820	-0.276855
00795														9.478298	0.750886	-2.693158	-0.048273	-0.280955	0.958506	-0.917253	0.392318	0.068800	-0.395369	-0.875871	-0.276646
00796														9.515182	0.711244	-2.692373	-0.048178	-0.280786	0.958561	-0.917236	0.392353	0.068829	-0.395421	-0.875910	-0.276449
00797														9.514831	0.696334	-2.660126	-0.048059	-0.280674	0.958599	-0.917187	0.392450	0.068924	-0.395547	-0.875903	-0.276291
00798														9.531122	0.712625	-2.669735	-0.047950	-0.280534	0.958646	-0.917117	0.392598	0.069015	-0.395723	-0.875881	-0.276108
00799														9.495774	0.683874	-2.705189	-0.047832	-0.280488	0.958665	-0.917029	0.392777	0.069165	-0.395942	-0.875815	-0.276003
00800														9.526975	0.698813	-2.696537	-0.047767	-0.280452	0.958679	-0.916940	0.392967	0.069271	-0.396156	-0.875742	-0.275928
00801														9.505755	0.652328	-2.683459	-0.047661	-0.280491	0.958673	-0.916826	0.393198	0.069462	-0.396431	-0.875626	-0.275901
00802														9.507194	0.687098	-2.744076	-0.047667	-0.280505	0.958668	-0.916710	0.393454	0.069544	-0.396699	-0.875506	-0.275897
00803														9.507073	0.688830	-2.744060	-0.047682	-0.280542	0.958657	-0.916553	0.393801	0.069655	-0.397062	-0.875338	-0.275909
00804														9.491739	0.692296	-2.763295	-0.047724	-0.280589	0.958641	-0.916403	0.394134	0.069739	-0.397401	-0.875174	-0.275942
00805														9.444521	0.666288	-2.760099	-0.047791	-0.280656	0.958618	-0.916252	0.394472	0.069811	-0.397740	-0.875000	-0.276004
00806														9.450338	0.718081	-2.792016	-0.047876	-0.280686	0.958605	-0.916107	0.394803	0.069847	-0.398065	-0.874841	-0.276040
00807														9.433476	0.688276	-2.750673	-0.047962	-0.280735	0.958586	-0.915948	0.395161	0.069900	-0.398420	-0.874663	-0.276092
00808														9.403746	0.709209	-2.819428	-0.048081	-0.280731	0.958581	-0.915791	0.395527	0.069900	-0.398768	-0.874499	-0.276108
00809														9.423381	0.726245	-2.770998	-0.048130	-0.280721	0.958582	-0.915637	0.395872	0.069958	-0.399114	-0.874346	-0.276092
00810														9.453731	0.723845	-2.732511	-0.048203	-0.280666	0.958594	-0.915496	0.396197	0.069966	-0.399429	-0.874217	-0.276047
00811														9.412933	0.747702	-2.759584	-0.048256	-0.280564	0.958621	-0.915347	0.396538	0.069979	-0.399763	-0.874095	-0.275949
00812														9.445040	0.777962	-2.780965	-0.048284	-0.280433	0.958659	-0.915214	0.396844	0.069991	-0.400066	-0.873998	-0.275817
00813														9.407438	0.786598	-2.717403	-0.048306	-0.280303	0.958695	-0.915092	0.397123	0.070002	-0.400342	-0.873913	-0.275687
00814														9.429773	0.764890	-2.767030	-0.048351	-0.280182	0.958728	-0.915002	0.397335	0.069973	-0.400541	-0.873855	-0.275579
00815														9.420212	0.801348	-2.785873	-0.048352	-0.280057	0.958765	-0.914947	0.397465	0.069958	-0.400668	-0.873836	-0.275455
00816														9.481882	0.811250	-2.738780	-0.048369	-0.279948	0.958796	-0.914895	0.397588	0.069933	-0.400784	-0.873815	-0.275353
00817														9.462512	0.795930	-2.786030	-0.048354	-0.279827	0.958832	-0.914880	0.397628	0.069907	-0.400820	-0.873836	-0.275235
00818														9.452993	0.744740	-2.813325	-0.048359	-0.279738	0.958858	-0.914849	0.397703	0.069887	-0.400890	-0.873830	-0.275151
00819														9.478280	0.707902	-2.773060	-0.048284	-0.279626	0.958894	-0.914827	0.397747	0.069923	-0.400950	-0.873846	-0.275014
00820														9.488386	0.673112	-2.751917	-0.048231	-0.279572	0.958913	-0.914818	0.397761	0.069955	-0.400976	-0.873857	-0.274942
00821														9.489327	0.690973	-2.781343	-0.048120	-0.279517	0.958934	-0.914799	0.397789	0.070045	-0.401032	-0.873862	-0.274844
00822														9.550808	0.701934	-2.734490	-0.048010	-0.279485	0.958949	-0.914806	0.397760	0.070127	-0.401031	-0.873885	-0.274771
00823														9.540223	0.722881	-2.723568	-0.047908	-0.279475	0.958957	-0.914835	0.397680	0.070195	-0.400976	-0.873925	-0.274725
00824														9.551585	0.721337	-2.764058	-0.047840	-0.279533	0.958943	-0.914882	0.397563	0.070248	-0.400877	-0.873959	-0.274759
00825														9.509640	0.728989	-2.762092	-0.047813	-0.279620	0.958919	-0.914931	0.397446	0.070275	-0.400769	-0.873985	-0.274836
00826														9.528943	0.745818	-2.714510	-0.047825	-0.279721	0.958889	-0.914958	0.397381	0.070288	-0.400706	-0.873982	-0.274937
00827														9.461165	0.686797	-2.730413	-0.047838	-0.279893	0.958839	-0.915011	0.397254	0.070311	-0.400582	-0.873985	-0.275109
00828														9.487235	0.682919	-2.753471	-0.047886	-0.280027	0.958797	-0.915046	0.397176	0.070299	-0.400496	-0.873977	-0.275257
00829														9.450523	0.636648	-2.761559	-0.047909	-0.280152	0.958759	-0.915071	0.397116	0.070313	-0.400437	-0.873964	-0.275385
00830														9.418111	0.695792	-2.731923	-0.047934	-0.280274	0.958723	-0.915088	0.397074	0.070328	-0.400395	-0.873944	-0.275509
00831														9.417692	0.696785	-2.733114	-0.047948	-0.280407	0.958683	-0.915105	0.397029	0.070359	-0.400354	-0.873922	-0.275639
00832														9.443806	0.692934	-2.755983	-0.048016	-0.280538	0.958641	-0.915115	0.397009	0.070345	-0.400323	-0.873889	-0.275787
00833														9.431976	0.696798	-2.716625	-0.048019	-0.280664	0.958604	-0.915124	0.396981	0.070388	-0.400303	-0.873862	-0.275905
00834														9.473992	0.707644	-2.750720	-0.048115	-0.280783	0.958564	-0.915116	0.397004	0.070356	-0.400309	-0.873813	-0.276051
00835														9.468345	0.674284	-2.751022	-0.048151	-0.280913	0.958525	-0.915107	0.397020	0.070384	-0.400325	-0.873764	-0.276182
00836														9.426213	0.681703	-2.749689	-0.048190	-0.281028	0.958489	-0.915105	0.397022	0.070397	-0.400324	-0.873726	-0.276303
00837														9.441771	0.697268	-2.761855	-0.048221	-0.281091	0.958469	-0.915099	0.397037	0.070400	-0.400336	-0.873699	-0.276372
00838														9.415033	0.702656	-2.740760	-0.048269	-0.281118	0.958459	-0.915077	0.397091	0.070383	-0.400381	-0.873666	-0.276412
00839														9.440761	0.682241	-2.732215	-0.048291	-0.281132	0.958453	-0.915048	0.397157	0.070389	-0.400445	-0.873631	-0.276428
00840														9.467944	0.694741	-2.784164	-0.048322	-0.281123	0.958454	-0.915034	0.397192	0.070367	-0.400473	-0.873618	-0.276431
00841														9.488263	0.727745	-2.766124	-0.048338	-0.281128	0.958452	-0.915022	0.397220	0.070362	-0.400497	-0.873604	-0.276439
00842														9.450967	0.752325	-2.734378	-0.048372	-0.281135	0.958448	-0.915051	0.397162	0.070315	-0.400428	-0.873628	-0.276465
00843														9.450926	0.752748	-2.734404	-0.048379	-0.281120	0.958452	-0.915067	0.397128	0.070291	-0.400389	-0.873648	-0.276456
00844														9.476070	0.715475	-2.695257	-0.048425	-0.281107	0.958454	-0.915096	0.397074	0.070225	-0.400318	-0.873677	-0.276468
00845														9.491857	0.730502	-2.706747	-0.048437	-0.281135	0.958445	-0.915139	0.396981	0.070196	-0.400219	-0.873710	-0.276506
00846														9.476534	0.732816	-2.726160	-0.048437	-0.281177	0.958433	-0.915180	0.396888	0.070185	-0.400125	-0.873739	-0.276551
00847														9.475670	0.717023	-2.696250	-0.048441	-0.281226	0.958418	-0.915221	0.396794	0.070172	-0.400029	-0.873766	-0.276605
00848														9.476182	0.734223	-2.727005	-0.048421	-0.281271	0.958406	-0.915267	0.396689	0.070178	-0.399928	-0.873799	-0.276646
00849														9.444241	0.705698	-2.704930	-0.048398	-0.281356	0.958382	-0.915316	0.396572	0.070201	-0.399819	-0.873825	-0.276723
00850														9.486411	0.716596	-2.738400	-0.048409	-0.281404	0.958367	-0.915345	0.396506	0.070190	-0.399750	-0.873839	-0.276776
00851														9.475507	0.736670	-2.728692	-0.048424	-0.281470	0.958347	-0.915380	0.396426	0.070178	-0.399667	-0.873854	-0.276849
00852														9.469455	0.686556	-2.697937	-0.048475	-0.281513	0.958332	-0.915421	0.396342	0.070122	-0.399568	-0.873878	-0.276916
00853														9.479965	0.667444	-2.708773	-0.048514	-0.281553	0.958318	-0.915460	0.396261	0.070077	-0.399474	-0.873902	-0.276975
00854														9.495666	0.682431	-2.720543	-0.048570	-0.281573	0.958310	-0.915486	0.396212	0.070016	-0.399408	-0.873918	-0.277020
00855														9.495455	0.682707	-2.721211	-0.048653	-0.281647	0.958284	-0.915484	0.396223	0.069973	-0.399402	-0.873889	-0.277121
00856														9.500370	0.717109	-2.723024	-0.048737	-0.281681	0.958269	-0.915481	0.396240	0.069913	-0.399398	-0.873870	-0.277186
00857														9.484256	0.702672	-2.712567	-0.048824	-0.281773	0.958238	-0.915478	0.396254	0.069874	-0.399394	-0.873835	-0.277304
00858														9.499750	0.717737	-2.725020	-0.048914	-0.281863	0.958207	-0.915488	0.396241	0.069823	-0.399362	-0.873811	-0.277424
00859														9.479034	0.685671	-2.744216	-0.049007	-0.281970	0.958171	-0.915485	0.396254	0.069786	-0.399357	-0.873771	-0.277559
00860														9.442008	0.726712	-2.744118	-0.049077	-0.282116	0.958124	-0.915496	0.396230	0.069774	-0.399322	-0.873735	-0.277722
00861														9.441484	0.727365	-2.745746	-0.049165	-0.282272	0.958074	-0.915496	0.396232	0.069760	-0.399311	-0.873683	-0.277900
00862														9.436487	0.710307	-2.776553	-0.049235	-0.282391	0.958035	-0.915499	0.396229	0.069743	-0.399296	-0.873646	-0.278037
00863														9.419593	0.679824	-2.736174	-0.049293	-0.282517	0.957995	-0.915506	0.396214	0.069739	-0.399273	-0.873613	-0.278176
00864														9.403335	0.666008	-2.726095	-0.049310	-0.282647	0.957956	-0.915516	0.396185	0.069770	-0.399248	-0.873584	-0.278303
00865														9.408087	0.701182	-2.728209	-0.049321	-0.282751	0.957925	-0.915529	0.396151	0.069793	-0.399217	-0.873565	-0.278405
00866														9.422878	0.700400	-2.710404	-0.049372	-0.282899	0.957878	-0.915545	0.396114	0.069798	-0.399174	-0.873534	-0.278563
00867														9.448886	0.697016	-2.733447	-0.049336	-0.283068	0.957830	-0.915558	0.396067	0.069892	-0.399149	-0.873501	-0.278706
00868														9.438347	0.734375	-2.754652	-0.049324	-0.283182	0.957797	-0.915556	0.396061	0.069950	-0.399155	-0.873466	-0.278805
00869														9.490383	0.710079	-2.768505	-0.049306	-0.283306	0.957761	-0.915552	0.396058	0.070021	-0.399167	-0.873428	-0.278909
00870														9.473620	0.680319	-2.727703	-0.049298	-0.283408	0.957731	-0.915542	0.396070	0.070077	-0.399189	-0.873389	-0.278997
00871														9.499744	0.676956	-2.750343	-0.049315	-0.283539	0.957692	-0.915538	0.396072	0.070118	-0.399197	-0.873345	-0.279123
00872														9.494812	0.660400	-2.780767	-0.049330	-0.283654	0.957657	-0.915546	0.396048	0.070147	-0.399176	-0.873319	-0.279235
00873														9.493878	0.645011	-2.751404	-0.049340	-0.283755	0.957626	-0.915559	0.396014	0.070171	-0.399145	-0.873302	-0.279334
00874														9.467561	0.667061	-2.761206	-0.049357	-0.283886	0.957587	-0.915590	0.395941	0.070188	-0.399073	-0.873293	-0.279465
00875														9.457038	0.703710	-2.782366	-0.049376	-0.283981	0.957558	-0.915631	0.395847	0.070182	-0.398977	-0.873304	-0.279567
00876														9.440311	0.673293	-2.741755	-0.049392	-0.284112	0.957518	-0.915681	0.395729	0.070185	-0.398858	-0.873315	-0.279702
00877														9.466994	0.685851	-2.794824	-0.049414	-0.284193	0.957493	-0.915715	0.395654	0.070176	-0.398779	-0.873323	-0.279790
00878														9.424975	0.692928	-2.792949	-0.049411	-0.284273	0.957469	-0.915752	0.395567	0.070186	-0.398695	-0.873336	-0.279869
00879														9.446670	0.671363	-2.844593	-0.049435	-0.284339	0.957449	-0.915781	0.395502	0.070170	-0.398625	-0.873344	-0.279943
00880														9.404246	0.661861	-2.811927	-0.049438	-0.284342	0.957447	-0.915805	0.395449	0.070153	-0.398569	-0.873367	-0.279952
00881														9.383906	0.630028	-2.829797	-0.049441	-0.284332	0.957450	-0.915813	0.395431	0.070140	-0.398549	-0.873378	-0.279946
00882														9.404252	0.663253	-2.811578	-0.049435	-0.284291	0.957463	-0.915792	0.395481	0.070143	-0.398599	-0.873369	-0.279902
00883														9.415087	0.644800	-2.821248	-0.049415	-0.284229	0.957482	-0.915748	0.395579	0.070167	-0.398703	-0.873345	-0.279829
00884														9.456475	0.623145	-2.792654	-0.049382	-0.284145	0.957509	-0.915705	0.395673	0.070192	-0.398805	-0.873329	-0.279732
00885														9.466946	0.588169	-2.771403	-0.049394	-0.284007	0.957549	-0.915636	0.395836	0.070172	-0.398962	-0.873301	-0.279599
00886														9.457133	0.624581	-2.790102	-0.049420	-0.283862	0.957591	-0.915542	0.396058	0.070154	-0.399175	-0.873247	-0.279461
00887														9.446242	0.628247	-2.747987	-0.049436	-0.283712	0.957634	-0.915425	0.396326	0.070160	-0.399440	-0.873174	-0.279310
00888														9.421212	0.666382	-2.785633	-0.049508	-0.283565	0.957674	-0.915296	0.396631	0.070125	-0.399729	-0.873083	-0.279182
00889														9.405823	0.652317	-2.772786	-0.049523	-0.283399	0.957723	-0.915155	0.396952	0.070140	-0.400048	-0.872991	-0.279012
00890														9.421535	0.651349	-2.751944	-0.049597	-0.283186	0.957782	-0.914979	0.397364	0.070108	-0.400441	-0.872873	-0.278818
00891														9.433339	0.649167	-2.790698	-0.049645	-0.282999	0.957834	-0.914789	0.397800	0.070118	-0.400870	-0.872735	-0.278633
00892														9.491346	0.658702	-2.802776	-0.049700	-0.282814	0.957886	-0.914565	0.398310	0.070148	-0.401375	-0.872562	-0.278448
00893														9.465810	0.680960	-2.809800	-0.049762	-0.282674	0.957924	-0.914334	0.398831	0.070194	-0.401892	-0.872370	-0.278305
00894														9.466688	0.698745	-2.838810	-0.049850	-0.282560	0.957953	-0.914092	0.399377	0.070234	-0.402430	-0.872157	-0.278195
00895														9.512547	0.694735	-2.780701	-0.049945	-0.282461	0.957978	-0.913858	0.399908	0.070268	-0.402951	-0.871946	-0.278103
00896														9.508234	0.678153	-2.809259	-0.050084	-0.282374	0.957996	-0.913625	0.400441	0.070267	-0.403462	-0.871729	-0.278040
00897														9.519083	0.659545	-2.819047	-0.050255	-0.282291	0.958012	-0.913384	0.400993	0.070245	-0.403986	-0.871502	-0.277992
00898														9.529153	0.624360	-2.799206	-0.050436	-0.282320	0.957994	-0.913159	0.401504	0.070247	-0.404470	-0.871258	-0.278053
00899														9.476470	0.650601	-2.786798	-0.050665	-0.282335	0.957977	-0.912919	0.402056	0.070212	-0.404984	-0.870998	-0.278119
00900														9.466132	0.686959	-2.807254	-0.050889	-0.282347	0.957962	-0.912698	0.402566	0.070167	-0.405454	-0.870759	-0.278183
00901														9.481715	0.702161	-2.819138	-0.051107	-0.282372	0.957943	-0.912495	0.403033	0.070119	-0.405882	-0.870535	-0.278261
00902														9.449835	0.672727	-2.797540	-0.051362	-0.282414	0.957917	-0.912288	0.403515	0.070049	-0.406317	-0.870298	-0.278368
00903														9.433668	0.658242	-2.787459	-0.051594	-0.282496	0.957880	-0.912066	0.404020	0.070026	-0.406785	-0.870037	-0.278500
00904														9.427631	0.712299	-2.779078	-0.051804	-0.282593	0.957840	-0.911870	0.404464	0.070012	-0.407196	-0.869799	-0.278641
00905														9.411915	0.715049	-2.799503	-0.051986	-0.282727	0.957791	-0.911668	0.404915	0.070042	-0.407626	-0.869546	-0.278803
00906														9.400107	0.718773	-2.760341	-0.052129	-0.282867	0.957742	-0.911508	0.405267	0.070082	-0.407965	-0.869336	-0.278961
00907														9.422040	0.714889	-2.843385	-0.052269	-0.283047	0.957681	-0.911374	0.405561	0.070124	-0.408247	-0.869140	-0.279160
00908														9.410184	0.718887	-2.804333	-0.052338	-0.283201	0.957631	-0.911247	0.405830	0.070214	-0.408520	-0.868964	-0.279307
00909														9.452457	0.747788	-2.868854	-0.052397	-0.283364	0.957580	-0.911144	0.406048	0.070301	-0.408744	-0.868809	-0.279461
00910														9.414242	0.756128	-2.807699	-0.052451	-0.283472	0.957545	-0.911080	0.406183	0.070341	-0.408878	-0.868711	-0.279571
00911														9.435255	0.718534	-2.829742	-0.052522	-0.283564	0.957514	-0.911062	0.406227	0.070329	-0.408910	-0.868661	-0.279680
00912														9.429853	0.684928	-2.829965	-0.052606	-0.283624	0.957492	-0.911047	0.406267	0.070288	-0.408932	-0.868622	-0.279767
00913														9.456130	0.680949	-2.852256	-0.052664	-0.283644	0.957482	-0.911040	0.406289	0.070250	-0.408940	-0.868605	-0.279808
00914														9.413625	0.670882	-2.820045	-0.052754	-0.283733	0.957451	-0.911029	0.406321	0.070214	-0.408954	-0.868561	-0.279924
00915														9.387404	0.692246	-2.829354	-0.052851	-0.283764	0.957437	-0.911037	0.406317	0.070134	-0.408924	-0.868553	-0.279993
00916														9.392361	0.726452	-2.830449	-0.052932	-0.283756	0.957434	-0.911022	0.406361	0.070067	-0.408946	-0.868535	-0.280018
00917														9.402984	0.707375	-2.841160	-0.053004	-0.283756	0.957430	-0.911014	0.406389	0.070008	-0.408954	-0.868522	-0.280046
00918														9.433932	0.720870	-2.833557	-0.053023	-0.283768	0.957426	-0.911000	0.406421	0.070005	-0.408983	-0.868503	-0.280062
00919														9.443893	0.685787	-2.814382	-0.053050	-0.283862	0.957397	-0.910975	0.406471	0.070038	-0.409035	-0.868449	-0.280154
00920														9.500592	0.678855	-2.798857	-0.053050	-0.283928	0.957377	-0.910943	0.406535	0.070088	-0.409107	-0.868397	-0.280209
00921														9.459064	0.703495	-2.826915	-0.053006	-0.284052	0.957343	-0.910912	0.406584	0.070202	-0.409181	-0.868334	-0.280298
00922														9.499960	0.682170	-2.800195	-0.052984	-0.284133	0.957320	-0.910892	0.406618	0.070270	-0.409229	-0.868292	-0.280359
00923														9.473690	0.704925	-2.809256	-0.052940	-0.284243	0.957290	-0.910877	0.406635	0.070366	-0.409268	-0.868248	-0.280437
00924														9.457585	0.691665	-2.798798	-0.052918	-0.284350	0.957259	-0.910866	0.406646	0.070439	-0.409295	-0.868207	-0.280524
00925														9.461238	0.693609	-2.740208	-0.052960	-0.284491	0.957215	-0.910840	0.406697	0.070479	-0.409347	-0.868137	-0.280664
00926														9.436344	0.661856	-2.819590	-0.053022	-0.284644	0.957166	-0.910824	0.406730	0.070499	-0.409375	-0.868072	-0.280826
00927														9.435875	0.662554	-2.820996	-0.053118	-0.284748	0.957130	-0.910822	0.406743	0.070459	-0.409369	-0.868032	-0.280960
00928														9.404967	0.666647	-2.860012	-0.053220	-0.284816	0.957104	-0.910810	0.406779	0.070404	-0.409382	-0.867992	-0.281062
00929														9.414241	0.718482	-2.832235	-0.053312	-0.284905	0.957072	-0.910807	0.406793	0.070361	-0.409377	-0.867956	-0.281181
00930														9.392613	0.757304	-2.811778	-0.053374	-0.284900	0.957070	-0.910797	0.406824	0.070310	-0.409391	-0.867943	-0.281200
00931														9.418941	0.753109	-2.833919	-0.053470	-0.284929	0.957056	-0.910805	0.406818	0.070229	-0.409358	-0.867937	-0.281268
00932														9.429029	0.717170	-2.814782	-0.053521	-0.284945	0.957048	-0.910838	0.406757	0.070168	-0.409280	-0.867960	-0.281309
00933														9.440087	0.715096	-2.855769	-0.053525	-0.284963	0.957043	-0.910873	0.406680	0.070148	-0.409200	-0.867990	-0.281333
00934														9.450713	0.696606	-2.866396	-0.053494	-0.284975	0.957041	-0.910901	0.406615	0.070162	-0.409142	-0.868017	-0.281335
00935														9.429860	0.648760	-2.854468	-0.053413	-0.285013	0.957034	-0.910928	0.406544	0.070233	-0.409094	-0.868038	-0.281341
00936														9.450044	0.682668	-2.836237	-0.053314	-0.285067	0.957024	-0.910950	0.406476	0.070329	-0.409056	-0.868052	-0.281353
00937														9.435110	0.702993	-2.885296	-0.053230	-0.285093	0.957021	-0.910955	0.406452	0.070413	-0.409058	-0.868054	-0.281342
00938														9.429242	0.636882	-2.823731	-0.053122	-0.285050	0.957039	-0.910954	0.406441	0.070493	-0.409074	-0.868074	-0.281259
00939														9.434816	0.689379	-2.853837	-0.053027	-0.285030	0.957051	-0.910954	0.406428	0.070570	-0.409086	-0.868087	-0.281200
00940														9.408942	0.711709	-2.861504	-0.052990	-0.284958	0.957074	-0.910938	0.406460	0.070583	-0.409125	-0.868095	-0.281118
00941														9.424440	0.710740	-2.841607	-0.052941	-0.284873	0.957102	-0.910941	0.406452	0.070589	-0.409125	-0.868127	-0.281021
00942														9.404461	0.679211	-2.858719	-0.052910	-0.284752	0.957140	-0.910922	0.406496	0.070579	-0.409171	-0.868146	-0.280895
00943														9.446043	0.657114	-2.830166	-0.052865	-0.284663	0.957169	-0.910900	0.406543	0.070596	-0.409226	-0.868153	-0.280791
00944														9.426037	0.625823	-2.847359	-0.052834	-0.284567	0.957199	-0.910849	0.406654	0.070619	-0.409345	-0.868132	-0.280683
00945														9.410996	0.628926	-2.865287	-0.052787	-0.284502	0.957221	-0.910778	0.406801	0.070683	-0.409508	-0.868085	-0.280592
00946														9.441797	0.626808	-2.826144	-0.052708	-0.284394	0.957258	-0.910677	0.407011	0.070777	-0.409743	-0.868022	-0.280443
00947														9.380218	0.602465	-2.839897	-0.052610	-0.284235	0.957310	-0.910550	0.407277	0.070884	-0.410038	-0.867949	-0.280237
00948														9.396419	0.619341	-2.849121	-0.052520	-0.284094	0.957357	-0.910409	0.407571	0.071001	-0.410362	-0.867857	-0.280047
00949														9.392387	0.603936	-2.876678	-0.052443	-0.283935	0.957408	-0.910257	0.407892	0.071107	-0.410709	-0.867758	-0.279845
00950														9.413076	0.638074	-2.856417	-0.052398	-0.283791	0.957453	-0.910080	0.408270	0.071207	-0.411107	-0.867628	-0.279665
00951														9.439952	0.635721	-2.876478	-0.052370	-0.283671	0.957491	-0.909877	0.408702	0.071319	-0.411560	-0.867464	-0.279510
00952														9.439882	0.620865	-2.844549	-0.052330	-0.283503	0.957542	-0.909642	0.409204	0.071442	-0.412084	-0.867282	-0.279300
00953														9.472394	0.548425	-2.843451	-0.052248	-0.283209	0.957634	-0.909406	0.409709	0.071550	-0.412615	-0.867140	-0.278958
00954														9.504217	0.563631	-2.832367	-0.052179	-0.282946	0.957715	-0.909109	0.410342	0.071700	-0.413278	-0.866926	-0.278640
00955														9.498568	0.602544	-2.789424	-0.052123	-0.282759	0.957774	-0.908789	0.411016	0.071885	-0.413987	-0.866668	-0.278392
00956														9.483849	0.606882	-2.806144	-0.052136	-0.282580	0.957826	-0.908460	0.411720	0.072017	-0.414707	-0.866392	-0.278178
00957														9.447525	0.649108	-2.801862	-0.052192	-0.282400	0.957876	-0.908129	0.412435	0.072112	-0.415425	-0.866111	-0.277982
00958														9.458785	0.631520	-2.810531	-0.052301	-0.282193	0.957931	-0.907774	0.413207	0.072162	-0.416187	-0.865810	-0.277779
00959														9.412539	0.604777	-2.805508	-0.052448	-0.281993	0.957982	-0.907385	0.414052	0.072204	-0.417016	-0.865471	-0.277592
00960														9.402112	0.625343	-2.793337	-0.052616	-0.281856	0.958013	-0.906958	0.414974	0.072277	-0.417922	-0.865074	-0.277466
00961														9.397980	0.609863	-2.821617	-0.052770	-0.281686	0.958054	-0.906527	0.415901	0.072351	-0.418836	-0.864684	-0.277303
00962														9.428785	0.607181	-2.782098	-0.052949	-0.281503	0.958098	-0.906110	0.416804	0.072387	-0.419716	-0.864309	-0.277142
00963														9.445688	0.535847	-2.801903	-0.053171	-0.281331	0.958137	-0.905694	0.417706	0.072387	-0.420585	-0.863930	-0.277010
00964														9.430762	0.538869	-2.819743	-0.053395	-0.281171	0.958171	-0.905269	0.418625	0.072397	-0.421470	-0.863537	-0.276888
00965														9.405610	0.578462	-2.856772	-0.053582	-0.281025	0.958203	-0.904839	0.419545	0.072448	-0.422369	-0.863138	-0.276762
00966														9.461571	0.641619	-2.798841	-0.053785	-0.280842	0.958246	-0.904407	0.420472	0.072468	-0.423267	-0.862746	-0.276610
00967														9.446757	0.644739	-2.816274	-0.053983	-0.280642	0.958293	-0.904010	0.421325	0.072463	-0.424089	-0.862395	-0.276448
00968														9.458018	0.626449	-2.825239	-0.054176	-0.280389	0.958356	-0.903604	0.422198	0.072443	-0.424928	-0.862050	-0.276234
00969														9.468769	0.590894	-2.804085	-0.054331	-0.280141	0.958420	-0.903219	0.423021	0.072445	-0.425727	-0.861727	-0.276012
00970														9.485079	0.606986	-2.813001	-0.054502	-0.279929	0.958473	-0.902813	0.423885	0.072462	-0.426566	-0.861372	-0.275826
00971														9.459583	0.629361	-2.819343	-0.054663	-0.279725	0.958523	-0.902411	0.424735	0.072488	-0.427395	-0.861019	-0.275645
00972														9.486609	0.626729	-2.839198	-0.054768	-0.279519	0.958577	-0.902045	0.425503	0.072537	-0.428153	-0.860707	-0.275442
00973														9.433939	0.635948	-2.793953	-0.054872	-0.279351	0.958620	-0.901687	0.426251	0.072601	-0.428893	-0.860391	-0.275276
00974														9.455887	0.599436	-2.813945	-0.054957	-0.279147	0.958674	-0.901325	0.427005	0.072666	-0.429643	-0.860083	-0.275069
00975														9.440553	0.586173	-2.801156	-0.054980	-0.278978	0.958722	-0.900960	0.427750	0.072803	-0.430404	-0.859768	-0.274866
00976														9.446692	0.535393	-2.810294	-0.054978	-0.278821	0.958768	-0.900596	0.428488	0.072967	-0.431166	-0.859451	-0.274663
00977														9.474386	0.551530	-2.859646	-0.054963	-0.278623	0.958826	-0.900242	0.429207	0.073117	-0.431907	-0.859157	-0.274419
00978														9.485654	0.535017	-2.868455	-0.054969	-0.278457	0.958874	-0.899862	0.429975	0.073279	-0.432697	-0.858826	-0.274209
00979														9.501309	0.535264	-2.847376	-0.054957	-0.278277	0.958927	-0.899466	0.430771	0.073459	-0.433521	-0.858486	-0.273974
00980														9.497960	0.434024	-2.887120	-0.055022	-0.278156	0.958959	-0.899046	0.431622	0.073612	-0.434383	-0.858098	-0.273823
00981														9.469159	0.371791	-2.965302	-0.055110	-0.278063	0.958981	-0.898597	0.432528	0.073775	-0.435300	-0.857672	-0.273704
00982														9.525443	0.348096	-2.919009	-0.055301	-0.278033	0.958978	-0.898090	0.433556	0.073910	-0.436320	-0.857162	-0.273675
00983														9.552816	0.277347	-2.983543	-0.055621	-0.278217	0.958907	-0.897533	0.434683	0.074058	-0.437425	-0.856531	-0.273886
00984														9.602676	0.117429	-3.144378	-0.056114	-0.278656	0.958750	-0.896881	0.435999	0.074227	-0.438698	-0.855720	-0.274387
00985														9.705672	-0.014136	-3.411353	-0.056877	-0.279271	0.958526	-0.896159	0.437471	0.074283	-0.440072	-0.854767	-0.275153
00986														9.781151	-0.040708	-3.457161	-0.057838	-0.280014	0.958252	-0.895367	0.439093	0.074266	-0.441557	-0.853692	-0.276111
00987														9.816164	-0.095289	-3.603573	-0.059084	-0.280890	0.957920	-0.894443	0.440993	0.074143	-0.443262	-0.852424	-0.277295
00988														9.822096	-0.199911	-3.641477	-0.060494	-0.281728	0.957585	-0.893262	0.443400	0.074021	-0.445447	-0.850897	-0.278480
00989														9.822769	-0.319148	-3.711194	-0.061962	-0.282691	0.957208	-0.891813	0.446298	0.074076	-0.448140	-0.849061	-0.279761
00990														9.823546	-0.400057	-3.841782	-0.063562	-0.283684	0.956809	-0.890106	0.449675	0.074193	-0.451300	-0.846945	-0.281091
00991														9.789813	-0.496152	-3.822535	-0.065360	-0.284724	0.956379	-0.888180	0.453449	0.074297	-0.454823	-0.844581	-0.282523
00992														9.671116	-0.529648	-3.726670	-0.067395	-0.285834	0.955906	-0.886065	0.457560	0.074348	-0.458635	-0.841984	-0.284105
00993														9.449077	-0.439842	-3.719044	-0.069666	-0.287086	0.955368	-0.883762	0.461987	0.074381	-0.462721	-0.839137	-0.285900
00994														9.200167	-0.346483	-3.689851	-0.072202	-0.288456	0.954767	-0.881243	0.466775	0.074381	-0.467117	-0.836011	-0.287902
00995														8.971013	-0.278206	-3.553465	-0.074904	-0.289890	0.954124	-0.878474	0.471957	0.074429	-0.471882	-0.832598	-0.290012
00996														8.774031	-0.227736	-3.509687	-0.077683	-0.291190	0.953506	-0.875410	0.477600	0.074533	-0.477097	-0.828919	-0.292012
00997														8.682144	-0.159195	-3.451162	-0.080510	-0.292279	0.952938	-0.872045	0.483695	0.074680	-0.482759	-0.824992	-0.293822
00998														8.592068	-0.032585	-3.475278	-0.083363	-0.293027	0.952463	-0.868332	0.490304	0.074843	-0.488927	-0.820815	-0.295318
00999														8.502968	0.056370	-3.438283	-0.086159	-0.293562	0.952049	-0.864312	0.497314	0.075127	-0.495522	-0.816394	-0.296578
01000														8.486564	0.065312	-3.412421	-0.088874	-0.293934	0.951685	-0.859970	0.504718	0.075576	-0.502547	-0.811704	-0.297630
01001														8.484767	-0.014436	-3.386028	-0.091511	-0.294229	0.951344	-0.855266	0.512548	0.076251	-0.510045	-0.806674	-0.298548
01002														8.540466	-0.062518	-3.402872	-0.094030	-0.294477	0.951021	-0.850090	0.520940	0.077255	-0.518175	-0.801189	-0.299316
01003														8.718225	-0.072488	-3.286565	-0.096419	-0.294698	0.950714	-0.844408	0.529900	0.078618	-0.526952	-0.795210	-0.299937
01004														8.869407	-0.039692	-3.333766	-0.098592	-0.294877	0.950435	-0.838169	0.539449	0.080420	-0.536425	-0.788697	-0.300342
01005														9.137449	0.079436	-3.359980	-0.100780	-0.295153	0.950120	-0.831464	0.549422	0.082483	-0.546362	-0.781678	-0.300779
01006														9.373785	0.233227	-3.448359	-0.103029	-0.295579	0.949746	-0.824321	0.559739	0.084778	-0.556669	-0.774161	-0.301321
01007														9.452793	0.491628	-3.430792	-0.105460	-0.296136	0.949306	-0.816765	0.570346	0.087183	-0.567251	-0.766165	-0.302022
01008														9.512731	0.762214	-3.353354	-0.108004	-0.296725	0.948836	-0.808842	0.581149	0.089671	-0.578023	-0.757773	-0.302770
01009														9.506704	0.992259	-3.188734	-0.110814	-0.297200	0.948363	-0.800524	0.592191	0.092043	-0.588967	-0.748988	-0.303538
01010														9.457417	1.163303	-3.066726	-0.113784	-0.297658	0.947867	-0.791879	0.603336	0.094406	-0.599984	-0.739855	-0.304359
01011														9.440488	1.316268	-2.908149	-0.117267	-0.298252	0.947256	-0.782941	0.614554	0.096573	-0.610943	-0.730321	-0.305581
01012														9.454952	1.340270	-2.793627	-0.121163	-0.298911	0.946558	-0.773756	0.625769	0.098566	-0.621789	-0.720462	-0.307105
01013														9.529235	1.295600	-2.695531	-0.125458	-0.299628	0.945771	-0.764344	0.636945	0.100397	-0.632486	-0.710299	-0.308929
01014														9.644711	1.166215	-2.535521	-0.129929	-0.300329	0.944945	-0.754686	0.648077	0.102208	-0.643093	-0.699857	-0.310858
01015														9.755183	1.049466	-2.511832	-0.134470	-0.301092	0.944066	-0.744806	0.659108	0.104122	-0.653592	-0.689145	-0.312886
01016														9.822170	0.936746	-2.412634	-0.138929	-0.301864	0.943174	-0.734774	0.669949	0.106186	-0.663932	-0.678267	-0.314877
01017														9.935390	0.971434	-2.359040	-0.143310	-0.302726	0.942242	-0.724682	0.680502	0.108412	-0.674016	-0.667289	-0.316903
01018														9.991810	1.045968	-2.336760	-0.147579	-0.303555	0.941315	-0.714665	0.690655	0.110678	-0.683721	-0.656391	-0.318866
01019														9.989153	1.254846	-2.286970	-0.151777	-0.304266	0.940418	-0.704753	0.700417	0.112873	-0.693028	-0.645630	-0.320740
01020														9.954881	1.498786	-2.211684	-0.156037	-0.304720	0.939573	-0.695041	0.709753	0.114758	-0.701834	-0.635135	-0.322540
01021														9.809604	1.723923	-2.171841	-0.160270	-0.304823	0.938827	-0.685559	0.718667	0.116307	-0.710157	-0.624981	-0.324155
01022														9.618889	1.874810	-2.155924	-0.164377	-0.304469	0.938232	-0.676315	0.727182	0.117490	-0.718038	-0.615227	-0.325449
01023														9.439380	1.918300	-2.211194	-0.168303	-0.303699	0.937785	-0.667327	0.735299	0.118360	-0.725499	-0.605889	-0.326420
01024														9.326385	1.885831	-2.304997	-0.171972	-0.302574	0.937483	-0.658592	0.743031	0.119002	-0.732586	-0.596954	-0.327054
01025														9.319658	1.751577	-2.305090	-0.175290	-0.301335	0.937268	-0.650049	0.750408	0.119685	-0.739398	-0.588290	-0.327421
01026														9.312299	1.602149	-2.357608	-0.178196	-0.300049	0.937132	-0.641639	0.757479	0.120520	-0.746020	-0.579824	-0.327503
01027														9.312285	1.414329	-2.409367	-0.180681	-0.298744	0.937073	-0.633285	0.764312	0.121560	-0.752532	-0.571471	-0.327286
01028														9.247987	1.376839	-2.401901	-0.182695	-0.297398	0.937111	-0.624869	0.771002	0.122860	-0.759053	-0.563125	-0.326693
01029														9.159371	1.351058	-2.439781	-0.184353	-0.296007	0.937227	-0.616431	0.777533	0.124318	-0.765524	-0.554817	-0.325809
01030														9.089162	1.460023	-2.432149	-0.185688	-0.294528	0.937429	-0.607979	0.783913	0.125866	-0.771933	-0.546566	-0.324630
01031														9.012392	1.611274	-2.419017	-0.186777	-0.292878	0.937730	-0.599479	0.790187	0.127392	-0.778292	-0.538356	-0.323163
01032														9.051194	1.767558	-2.358149	-0.187745	-0.291036	0.938110	-0.590881	0.796408	0.128821	-0.784609	-0.530125	-0.321490
01033														9.146916	1.860679	-2.323985	-0.188700	-0.288995	0.938549	-0.582327	0.802490	0.130021	-0.790751	-0.522008	-0.319720
01034														9.241792	1.850134	-2.286576	-0.189588	-0.286695	0.939075	-0.573891	0.808396	0.130937	-0.796684	-0.514103	-0.317794
01035														9.305117	1.860977	-2.275343	-0.190376	-0.284168	0.939684	-0.565631	0.814091	0.131594	-0.802383	-0.506462	-0.315718
01036														9.296443	1.882297	-2.208996	-0.191091	-0.281471	0.940350	-0.557559	0.819573	0.132016	-0.807844	-0.499073	-0.313550
01037														9.261312	1.814023	-2.191274	-0.191742	-0.278635	0.941062	-0.549716	0.824823	0.132214	-0.813048	-0.491965	-0.311323
01038														9.200574	1.718795	-2.258478	-0.192294	-0.275795	0.941786	-0.542135	0.829809	0.132310	-0.817993	-0.485133	-0.309085
01039														9.159167	1.722370	-2.255814	-0.192636	-0.272983	0.942535	-0.534826	0.834526	0.132393	-0.822711	-0.478588	-0.306758
01040														9.223168	1.707295	-2.172625	-0.192774	-0.270257	0.943292	-0.527850	0.838940	0.132487	-0.827171	-0.472377	-0.304381
01041														9.314883	1.798052	-2.107979	-0.192920	-0.267737	0.943980	-0.521421	0.842947	0.132519	-0.831205	-0.466646	-0.302224
01042														9.433195	1.956171	-2.099295	-0.193130	-0.265501	0.944569	-0.515359	0.846653	0.132606	-0.834929	-0.461182	-0.300343
01043														9.575850	2.113380	-2.168029	-0.193372	-0.263471	0.945087	-0.509664	0.850078	0.132703	-0.838362	-0.456016	-0.298663
01044														9.731761	2.196410	-2.192528	-0.193512	-0.261591	0.945581	-0.504387	0.853202	0.132812	-0.841514	-0.451238	-0.297048
01045														9.878007	2.245034	-2.289503	-0.193614	-0.259912	0.946023	-0.499482	0.856059	0.132970	-0.844412	-0.446777	-0.295566
01046														9.963691	2.222390	-2.344605	-0.193707	-0.258335	0.946436	-0.494886	0.858704	0.133100	-0.847092	-0.442596	-0.294183
01047														9.952515	2.227832	-2.393512	-0.193823	-0.256882	0.946807	-0.490569	0.861159	0.133219	-0.849573	-0.438653	-0.292931
01048														9.931834	2.212476	-2.408569	-0.194033	-0.255454	0.947151	-0.486525	0.863451	0.133210	-0.851848	-0.434965	-0.291823
01049														9.866993	2.134821	-2.440919	-0.194450	-0.254155	0.947415	-0.482633	0.865640	0.133161	-0.853964	-0.431361	-0.290987
01050														9.731773	2.129101	-2.451410	-0.195003	-0.252839	0.947653	-0.478996	0.867692	0.132940	-0.855884	-0.427999	-0.290311
01051														9.610250	2.077178	-2.436766	-0.195669	-0.251519	0.947867	-0.475466	0.869680	0.132621	-0.857698	-0.424729	-0.289759
01052														9.462017	1.991288	-2.332333	-0.196383	-0.250141	0.948084	-0.472210	0.871527	0.132130	-0.859332	-0.421746	-0.289272
01053														9.446101	1.942055	-2.255130	-0.197106	-0.248780	0.948292	-0.469016	0.873326	0.131626	-0.860914	-0.418820	-0.288819
01054														9.443392	1.836047	-2.260777	-0.197845	-0.247430	0.948491	-0.465755	0.875142	0.131144	-0.862514	-0.415818	-0.288384
01055														9.465241	1.738116	-2.289737	-0.198542	-0.246139	0.948682	-0.462384	0.876984	0.130769	-0.864166	-0.412692	-0.287929
01056														9.531114	1.707363	-2.248547	-0.199212	-0.244926	0.948855	-0.458923	0.878840	0.130502	-0.865855	-0.409454	-0.287477
01057														9.557897	1.706641	-2.319962	-0.199928	-0.243849	0.948982	-0.455307	0.880735	0.130390	-0.867597	-0.406009	-0.287110
01058														9.515277	1.779918	-2.365023	-0.200722	-0.242849	0.949071	-0.451518	0.882686	0.130370	-0.869392	-0.402354	-0.286825
01059														9.564578	1.762050	-2.392337	-0.201622	-0.241868	0.949130	-0.447542	0.884707	0.130381	-0.871238	-0.398488	-0.286622
01060														9.525296	1.767821	-2.378459	-0.202714	-0.240894	0.949145	-0.443303	0.886836	0.130402	-0.873149	-0.394324	-0.286563
01061														9.501205	1.758448	-2.353580	-0.203960	-0.239846	0.949144	-0.438809	0.889073	0.130371	-0.875127	-0.389903	-0.286582
01062														9.469308	1.753445	-2.362762	-0.205426	-0.238649	0.949130	-0.434102	0.891408	0.130180	-0.877129	-0.385277	-0.286716
01063														9.495193	1.756913	-2.384859	-0.207112	-0.237290	0.949104	-0.429147	0.893855	0.129830	-0.879169	-0.380416	-0.286961
01064														9.486496	1.727647	-2.351519	-0.209029	-0.235776	0.949061	-0.424043	0.896366	0.129290	-0.881189	-0.375418	-0.287346
01065														9.481711	1.757722	-2.399743	-0.211238	-0.234152	0.948974	-0.418836	0.898914	0.128569	-0.883151	-0.370306	-0.287956
01066														9.509569	1.788516	-2.439058	-0.213691	-0.232456	0.948842	-0.413443	0.901524	0.127751	-0.885100	-0.364992	-0.288755
01067														9.515514	1.844432	-2.414552	-0.216279	-0.230644	0.948697	-0.407991	0.904138	0.126800	-0.886999	-0.359635	-0.289647
01068														9.478680	1.872039	-2.421043	-0.218880	-0.228715	0.948568	-0.402486	0.906747	0.125759	-0.888874	-0.354259	-0.290523
01069														9.476818	1.903334	-2.307340	-0.221430	-0.226751	0.948447	-0.397077	0.909277	0.124683	-0.890673	-0.348998	-0.291379
01070														9.440806	1.929520	-2.312702	-0.223940	-0.224756	0.948333	-0.391884	0.911684	0.123530	-0.892344	-0.343973	-0.292241
01071														9.452300	2.014581	-2.243739	-0.226484	-0.222788	0.948193	-0.386999	0.913934	0.122300	-0.893833	-0.339251	-0.293210
01072														9.497724	2.025292	-2.218794	-0.229081	-0.220842	0.948025	-0.382374	0.916051	0.120997	-0.895161	-0.334782	-0.294294
01073														9.434322	2.082604	-2.138056	-0.231640	-0.218972	0.947837	-0.377958	0.918049	0.119722	-0.896376	-0.330510	-0.295419
01074														9.455263	2.157844	-2.037135	-0.234085	-0.217219	0.947639	-0.373833	0.919893	0.118515	-0.897470	-0.326516	-0.296537
01075														9.409342	2.231790	-2.010600	-0.236460	-0.215510	0.947440	-0.370011	0.921594	0.117284	-0.898431	-0.322830	-0.297662
01076														9.443464	2.290289	-2.007918	-0.238791	-0.213817	0.947239	-0.366528	0.923150	0.115981	-0.899242	-0.319495	-0.298810
01077														9.426791	2.331628	-2.014923	-0.241018	-0.212158	0.947048	-0.363444	0.924538	0.114621	-0.899899	-0.316574	-0.299938
01078														9.415614	2.331525	-1.978827	-0.243166	-0.210495	0.946870	-0.360777	0.925763	0.113152	-0.900395	-0.314094	-0.301055
01079														9.393072	2.306858	-1.964817	-0.245193	-0.208910	0.946698	-0.358548	0.926810	0.111658	-0.900735	-0.312059	-0.302152
01080														9.319047	2.338643	-1.959985	-0.247235	-0.207295	0.946522	-0.356765	0.927697	0.109984	-0.900885	-0.310494	-0.303315
01081														9.281585	2.402320	-1.956729	-0.249247	-0.205701	0.946342	-0.355427	0.928421	0.108193	-0.900859	-0.309388	-0.304518
01082														9.258249	2.414588	-1.878831	-0.251242	-0.203948	0.946194	-0.354506	0.929013	0.106113	-0.900668	-0.308771	-0.305708
01083														9.236375	2.312324	-1.868450	-0.253084	-0.202132	0.946092	-0.354082	0.929430	0.103854	-0.900319	-0.308710	-0.306796
01084														9.245043	2.141138	-1.717748	-0.254781	-0.200164	0.946056	-0.354137	0.929688	0.101329	-0.899819	-0.309217	-0.307752
01085														9.244411	2.012255	-1.717867	-0.256217	-0.198212	0.946079	-0.354649	0.929770	0.098749	-0.899209	-0.310225	-0.308519
01086														9.248035	2.101890	-1.659607	-0.257571	-0.196212	0.946128	-0.355587	0.929700	0.096001	-0.898452	-0.311703	-0.309234
01087														9.235427	2.208271	-1.666184	-0.258777	-0.194200	0.946214	-0.356923	0.929478	0.093151	-0.897575	-0.313620	-0.309842
01088														9.198863	2.306233	-1.649987	-0.259852	-0.192142	0.946339	-0.358598	0.929126	0.090181	-0.896596	-0.315921	-0.310337
01089														9.128363	2.332070	-1.643952	-0.260767	-0.190206	0.946479	-0.360599	0.928629	0.087270	-0.895527	-0.318542	-0.310744
01090														9.236120	2.339154	-1.634579	-0.261688	-0.188329	0.946600	-0.362684	0.928084	0.084381	-0.894416	-0.321235	-0.311172
01091														9.300288	2.323484	-1.602545	-0.262633	-0.186681	0.946665	-0.364875	0.927468	0.081668	-0.893247	-0.323966	-0.311699
01092														9.390885	2.275946	-1.605489	-0.263651	-0.185173	0.946678	-0.367080	0.926824	0.079057	-0.892043	-0.326663	-0.312331
01093														9.426562	2.328098	-1.661821	-0.264673	-0.183814	0.946658	-0.369218	0.926180	0.076609	-0.890857	-0.329247	-0.313003
01094														9.421105	2.357864	-1.640623	-0.265809	-0.182459	0.946602	-0.371207	0.925583	0.074171	-0.889692	-0.331669	-0.313758
01095														9.431456	2.319992	-1.805598	-0.266998	-0.181051	0.946537	-0.372942	0.925076	0.071747	-0.888609	-0.333847	-0.314515
01096														9.409689	2.230127	-2.174461	-0.268052	-0.179421	0.946550	-0.374318	0.924709	0.069279	-0.887713	-0.335740	-0.315030
01097														9.603558	1.931486	-2.371640	-0.268906	-0.177772	0.946618	-0.375191	0.924520	0.067041	-0.887086	-0.337135	-0.315308
01098														9.869479	1.592781	-2.447692	-0.269591	-0.176237	0.946711	-0.375603	0.924489	0.065141	-0.886704	-0.338026	-0.315428
01099														10.140180	1.393996	-2.655532	-0.270092	-0.175259	0.946749	-0.375789	0.924497	0.063933	-0.886472	-0.338510	-0.315560
01100														10.298516	1.438633	-3.014963	-0.270418	-0.174791	0.946743	-0.375802	0.924532	0.063350	-0.886367	-0.338657	-0.315697
01101														10.469139	1.783490	-3.323661	-0.270374	-0.174769	0.946760	-0.375538	0.924633	0.063439	-0.886493	-0.338392	-0.315629
01102														10.421298	2.177018	-3.489352	-0.270110	-0.174917	0.946808	-0.374880	0.924867	0.063916	-0.886852	-0.337675	-0.315388
01103														10.275295	2.288855	-3.403640	-0.269753	-0.175233	0.946851	-0.373907	0.925207	0.064703	-0.887371	-0.336580	-0.315098
01104														9.984980	2.123646	-3.219248	-0.269334	-0.175531	0.946915	-0.372838	0.925580	0.065529	-0.887948	-0.335397	-0.314735
01105														9.593918	2.002856	-3.051074	-0.268515	-0.175877	0.947083	-0.371718	0.925956	0.066565	-0.888665	-0.334174	-0.314010
01106														9.252156	1.978911	-2.849650	-0.267192	-0.176118	0.947413	-0.370665	0.926299	0.067657	-0.889503	-0.333096	-0.312780
01107														9.020726	1.977350	-2.648926	-0.265401	-0.176539	0.947838	-0.369117	0.926798	0.069265	-0.890682	-0.331480	-0.311137
01108														8.726726	2.045104	-2.595937	-0.263413	-0.177132	0.948282	-0.366742	0.927580	0.071392	-0.892252	-0.328969	-0.309298
01109														8.632658	1.997165	-2.439062	-0.261351	-0.178020	0.948686	-0.363511	0.928637	0.074115	-0.894178	-0.325488	-0.307413
01110														8.902121	1.973760	-2.295382	-0.259547	-0.178984	0.948999	-0.359348	0.930011	0.077123	-0.896384	-0.321004	-0.305699
01111														9.500623	1.975322	-2.227659	-0.257803	-0.179821	0.949317	-0.354523	0.931603	0.080188	-0.898805	-0.315882	-0.303921
01112														10.260405	2.114938	-2.566164	-0.256380	-0.180240	0.949623	-0.349385	0.933312	0.082817	-0.901221	-0.310551	-0.302255
01113														10.887647	2.333070	-3.050134	-0.255451	-0.180005	0.949917	-0.343894	0.935178	0.084733	-0.903594	-0.305026	-0.300794
01114														11.299660	2.314213	-3.434195	-0.255179	-0.178900	0.950199	-0.338270	0.937148	0.085600	-0.905791	-0.299581	-0.299657
01115														11.706523	1.957610	-3.656665	-0.255362	-0.177091	0.950489	-0.332632	0.939162	0.085614	-0.907825	-0.294301	-0.298733
01116														11.837389	1.388749	-3.656949	-0.256212	-0.174777	0.950688	-0.326963	0.941214	0.084918	-0.909643	-0.289083	-0.298296
01117														11.557460	0.917877	-3.739904	-0.257593	-0.172236	0.950779	-0.321257	0.943274	0.083838	-0.911285	-0.283848	-0.298312
01118														10.795165	0.483368	-3.794150	-0.259468	-0.169437	0.950772	-0.315734	0.945272	0.082293	-0.912682	-0.278838	-0.298765
01119														9.756817	0.185205	-3.761666	-0.261444	-0.166405	0.950766	-0.310569	0.947147	0.080370	-0.913889	-0.274266	-0.299306
01120														8.718022	-0.033953	-3.779901	-0.263327	-0.163132	0.950814	-0.305743	0.948903	0.078129	-0.914975	-0.270132	-0.299749
01121														7.791942	-0.155174	-3.794392	-0.264956	-0.159639	0.950954	-0.300920	0.950637	0.075743	-0.916103	-0.266093	-0.299915
01122														7.277065	-0.426799	-3.831027	-0.266389	-0.156021	0.951154	-0.295709	0.952453	0.073415	-0.917384	-0.261708	-0.299860
01123														7.085356	-0.821396	-3.899197	-0.267519	-0.152355	0.951431	-0.289830	0.954416	0.071340	-0.918930	-0.256669	-0.299481
01124														7.223514	-1.352742	-3.969657	-0.268334	-0.148440	0.951821	-0.283231	0.956543	0.069329	-0.920748	-0.250982	-0.298716
01125														7.540620	-1.837200	-4.035516	-0.268759	-0.144145	0.952361	-0.275764	0.958866	0.067308	-0.922888	-0.244537	-0.297453
01126														7.942307	-2.122174	-4.036090	-0.269084	-0.139237	0.952999	-0.267266	0.961428	0.065005	-0.925291	-0.237213	-0.295918
01127														8.395764	-2.243369	-4.046912	-0.269284	-0.133578	0.953752	-0.257671	0.964223	0.062293	-0.927950	-0.228980	-0.294068
01128														8.891730	-2.310416	-4.063301	-0.269380	-0.126865	0.954641	-0.247080	0.967209	0.058814	-0.930799	-0.220029	-0.291892
01129														9.434940	-2.386328	-3.935264	-0.269296	-0.119053	0.955670	-0.235719	0.970295	0.054452	-0.933764	-0.210606	-0.289360
01130														9.896091	-2.291139	-3.822243	-0.269181	-0.110120	0.956773	-0.223800	0.973399	0.049069	-0.936726	-0.200917	-0.286666
01131														10.220563	-2.151722	-3.703152	-0.268938	-0.100368	0.957914	-0.211457	0.976444	0.042942	-0.939659	-0.191008	-0.283827
01132														10.372461	-1.867351	-3.585195	-0.268768	-0.089969	0.958994	-0.198841	0.979365	0.036153	-0.942457	-0.180971	-0.281111
01133														10.391413	-1.613807	-3.440781	-0.268649	-0.079203	0.959976	-0.185981	0.982126	0.028984	-0.945113	-0.170750	-0.278578
01134														10.200843	-1.306045	-3.335801	-0.268640	-0.068331	0.960814	-0.173053	0.984675	0.021643	-0.947568	-0.160457	-0.276348
01135														9.981757	-1.028142	-3.255010	-0.268745	-0.057624	0.961486	-0.159962	0.987018	0.014443	-0.949836	-0.149920	-0.274473
01136														9.751427	-0.811200	-3.162020	-0.268950	-0.047230	0.961995	-0.146752	0.989145	0.007535	-0.951908	-0.139149	-0.272962
01137														9.437791	-0.725406	-3.061972	-0.269077	-0.037303	0.962396	-0.133309	0.991074	0.001143	-0.953848	-0.127988	-0.271648
01138														9.206832	-0.784144	-2.860556	-0.269116	-0.027924	0.962703	-0.119512	0.992822	-0.004611	-0.955664	-0.116296	-0.270522
01139														8.981749	-0.985151	-2.684566	-0.268974	-0.019156	0.962957	-0.105354	0.994388	-0.009646	-0.957368	-0.104046	-0.269483
01140														8.858836	-1.106084	-2.550165	-0.268581	-0.010866	0.963196	-0.090928	0.995757	-0.014121	-0.958956	-0.091374	-0.268429
01141														8.775375	-1.077745	-2.481098	-0.267862	-0.003042	0.963452	-0.076298	0.996921	-0.018065	-0.960431	-0.078348	-0.267270
01142														8.807848	-0.899099	-2.401818	-0.266884	0.004366	0.963719	-0.061461	0.997877	-0.021541	-0.961767	-0.064980	-0.266049
01143														8.877602	-0.644362	-2.419239	-0.265687	0.011356	0.963992	-0.046600	0.998610	-0.024608	-0.962932	-0.051460	-0.264789
01144														8.925796	-0.379610	-2.461408	-0.264335	0.017986	0.964263	-0.031851	0.999118	-0.027367	-0.963905	-0.037946	-0.263529
01145														8.945383	-0.209805	-2.493722	-0.262944	0.024238	0.964506	-0.017369	0.999403	-0.029850	-0.964655	-0.024601	-0.262367
01146														8.971434	-0.056339	-2.493416	-0.261525	0.030200	0.964724	-0.003154	0.999478	-0.032144	-0.965192	-0.011450	-0.261293
01147														9.020448	0.110014	-2.485336	-0.260219	0.035784	0.964886	0.010653	0.999359	-0.034189	-0.965491	0.001382	-0.260434
01148														9.104449	0.101506	-2.477849	-0.258972	0.041125	0.965009	0.024182	0.999056	-0.036087	-0.965582	0.013990	-0.259722
01149														9.228631	-0.029570	-2.503128	-0.257648	0.046216	0.965133	0.037498	0.998581	-0.037807	-0.965511	0.026450	-0.259016
01150														9.346651	-0.198405	-2.429467	-0.256290	0.051033	0.965252	0.050657	0.997942	-0.039311	-0.965272	0.038822	-0.258347
01151														9.511092	-0.471212	-2.469124	-0.254866	0.055576	0.965378	0.063776	0.997139	-0.040567	-0.964871	0.051228	-0.257682
01152														9.592871	-0.758475	-2.384541	-0.253485	0.059992	0.965477	0.076999	0.996160	-0.041682	-0.964270	0.063775	-0.257131
01153														9.686761	-0.960273	-2.304867	-0.252019	0.064289	0.965584	0.090377	0.994994	-0.042659	-0.963493	0.076516	-0.256567
01154														9.765789	-1.010139	-2.234484	-0.250536	0.068568	0.965676	0.103918	0.993630	-0.043592	-0.962514	0.089430	-0.256065
01155														9.816004	-0.931105	-2.071523	-0.249086	0.072808	0.965741	0.117628	0.992062	-0.044454	-0.961311	0.102525	-0.255673
01156														9.841814	-0.873908	-1.990222	-0.247713	0.077044	0.965765	0.131388	0.990295	-0.045301	-0.959883	0.115669	-0.255431
01157														9.849750	-0.773539	-1.911274	-0.246247	0.081221	0.965798	0.145274	0.988318	-0.046074	-0.958258	0.128960	-0.255170
01158														9.816105	-0.614767	-1.863409	-0.244718	0.085306	0.965834	0.159182	0.986141	-0.046767	-0.956438	0.142299	-0.254905
01159														9.763502	-0.386591	-1.838014	-0.243151	0.089218	0.965877	0.172916	0.983798	-0.047343	-0.954452	0.155504	-0.254638
01160														9.691108	-0.138083	-1.760775	-0.241664	0.093022	0.965891	0.186464	0.981296	-0.047853	-0.952276	0.168539	-0.254489
01161														9.648923	0.017130	-1.652017	-0.240220	0.096621	0.965898	0.199776	0.978655	-0.048212	-0.949939	0.181382	-0.254395
01162														9.578581	0.030271	-1.536120	-0.239016	0.100034	0.965849	0.212942	0.975867	-0.048375	-0.947379	0.194107	-0.254549
01163														9.593691	-0.107151	-1.515660	-0.237991	0.103217	0.965767	0.225925	0.972946	-0.048310	-0.944626	0.206694	-0.254872
01164														9.609733	-0.267816	-1.477240	-0.237193	0.106054	0.965656	0.238641	0.969925	-0.047905	-0.941695	0.219083	-0.255369
01165														9.628468	-0.321434	-1.404491	-0.236608	0.108529	0.965525	0.251207	0.966786	-0.047111	-0.938569	0.231399	-0.256013
01166														9.624814	-0.381501	-1.342033	-0.236278	0.110755	0.965353	0.263512	0.963556	-0.046052	-0.935272	0.243501	-0.256852
01167														9.513432	-0.422313	-1.387089	-0.236211	0.112784	0.965134	0.275565	0.960239	-0.044769	-0.931809	0.255382	-0.257899
01168														9.363889	-0.398705	-1.383788	-0.236282	0.114678	0.964894	0.287416	0.956825	-0.043337	-0.928204	0.267086	-0.259041
01169														9.208774	-0.356252	-1.301697	-0.236361	0.116609	0.964643	0.299152	0.953284	-0.041936	-0.924468	0.278663	-0.260203
01170														8.996130	-0.225180	-1.295865	-0.236642	0.118552	0.964337	0.310691	0.949647	-0.040504	-0.920582	0.290026	-0.261560
01171														8.819881	-0.239957	-1.255828	-0.237038	0.120485	0.964000	0.322076	0.945909	-0.039029	-0.916559	0.301230	-0.263022
01172														8.701029	-0.346389	-1.143021	-0.237612	0.122277	0.963633	0.333401	0.942046	-0.037328	-0.912351	0.312407	-0.264609
01173														8.726875	-0.468219	-1.126417	-0.238353	0.123823	0.963253	0.344744	0.938034	-0.035276	-0.907931	0.323668	-0.266271
01174														8.822577	-0.599071	-1.227934	-0.239468	0.125123	0.962808	0.356247	0.933818	-0.032750	-0.903185	0.335155	-0.268194
01175														8.968387	-0.704818	-1.342605	-0.240891	0.126105	0.962325	0.367798	0.929430	-0.029727	-0.898163	0.346780	-0.270273
01176														9.150071	-0.768179	-1.443100	-0.242651	0.126810	0.961790	0.379348	0.924882	-0.026237	-0.892869	0.358487	-0.272528
01177														9.230149	-0.818207	-1.494742	-0.244566	0.127214	0.961251	0.391119	0.920071	-0.022254	-0.887250	0.370521	-0.274774
01178														9.292336	-0.835032	-1.598014	-0.246604	0.127599	0.960680	0.402986	0.915028	-0.018090	-0.881356	0.382679	-0.277070
01179														9.333778	-0.795481	-1.613078	-0.248666	0.127991	0.960096	0.414843	0.909788	-0.013840	-0.875254	0.394848	-0.279329
01180														9.344926	-0.651772	-1.549678	-0.250762	0.128468	0.959487	0.426622	0.904379	-0.009592	-0.868972	0.406933	-0.281591
01181														9.364525	-0.544510	-1.332093	-0.252691	0.129090	0.958897	0.438315	0.898804	-0.005494	-0.862570	0.418911	-0.283702
01182														9.346517	-0.449120	-1.149890	-0.254506	0.129856	0.958313	0.450002	0.893026	-0.001499	-0.855993	0.430862	-0.285716
01183														9.429736	-0.405002	-1.061675	-0.256175	0.130747	0.957747	0.461723	0.887021	0.002408	-0.849227	0.442830	-0.287601
01184														9.566316	-0.333937	-0.919450	-0.257742	0.131751	0.957189	0.473464	0.880791	0.006255	-0.842259	0.454807	-0.289397
01185														9.787776	-0.171947	-0.633732	-0.259247	0.132728	0.956647	0.485085	0.874408	0.010138	-0.835155	0.466683	-0.291072
01186														10.020462	-0.121233	-0.520750	-0.260775	0.133787	0.956085	0.496585	0.867875	0.014001	-0.827889	0.478429	-0.292756
01187														10.267488	-0.093572	-0.577110	-0.262382	0.134779	0.955505	0.507914	0.861220	0.017993	-0.820475	0.490036	-0.294425
01188														10.485525	-0.117106	-0.666335	-0.264171	0.135664	0.954887	0.518838	0.854586	0.022123	-0.813032	0.501276	-0.296145
01189														10.662359	-0.102368	-0.668700	-0.265865	0.136506	0.954296	0.529374	0.847985	0.026183	-0.805655	0.512141	-0.297713
01190														10.716968	-0.095916	-0.622733	-0.267438	0.137309	0.953742	0.539549	0.841414	0.030157	-0.798350	0.522656	-0.299111
01191														10.680929	-0.079644	-0.480392	-0.268656	0.138087	0.953287	0.549374	0.834889	0.033888	-0.791210	0.532815	-0.300159
01192														10.572834	-0.132847	-0.246116	-0.269667	0.138978	0.952872	0.558930	0.828373	0.037360	-0.784141	0.542664	-0.301064
01193														10.465371	-0.259511	-0.187993	-0.270533	0.140054	0.952469	0.568145	0.821930	0.040513	-0.777189	0.552101	-0.301931
01194														10.313036	-0.294857	-0.064028	-0.271217	0.141119	0.952117	0.576735	0.815779	0.043375	-0.770596	0.560884	-0.302641
01195														10.051394	-0.271066	-0.102549	-0.271426	0.141886	0.951943	0.584557	0.810051	0.045937	-0.764605	0.568934	-0.302810
01196														9.816607	-0.069273	-0.860752	-0.271165	0.142185	0.951973	0.591156	0.805119	0.048137	-0.759608	0.575818	-0.302373
01197														9.931636	0.471345	-1.299732	-0.270488	0.142116	0.952176	0.595757	0.801632	0.049592	-0.756247	0.580680	-0.301498
01198														10.014286	1.129467	-1.699523	-0.269459	0.142053	0.952477	0.598844	0.799291	0.050209	-0.754174	0.583914	-0.300444
01199														10.185819	1.929733	-2.387256	-0.267275	0.142165	0.953076	0.601299	0.797479	0.049669	-0.752997	0.586359	-0.298630
01200														11.095525	2.756082	-3.047928	-0.264005	0.143110	0.953845	0.603134	0.796226	0.047474	-0.752682	0.587830	-0.296522
01201														11.933286	3.010612	-3.646926	-0.260433	0.145587	0.954452	0.603392	0.796274	0.043183	-0.753719	0.587155	-0.295223
01202														12.688482	3.491621	-4.573133	-0.257057	0.149899	0.954700	0.602454	0.797294	0.037029	-0.755626	0.584682	-0.295257
01203														12.996123	3.873641	-5.481285	-0.253548	0.155085	0.954810	0.601272	0.798482	0.029974	-0.757750	0.581700	-0.295702
01204														12.903044	3.627771	-6.310896	-0.250052	0.160484	0.954840	0.599666	0.799931	0.022592	-0.760181	0.578234	-0.296262
01205														12.055833	2.810090	-6.664727	-0.246903	0.165585	0.954788	0.597324	0.801852	0.015403	-0.763049	0.574121	-0.296887
01206														10.810292	1.706785	-6.770455	-0.244332	0.169956	0.954681	0.594461	0.804074	0.008997	-0.766105	0.569719	-0.297493
01207														9.622238	0.629893	-6.696446	-0.242032	0.173467	0.954636	0.591839	0.806048	0.003584	-0.768861	0.565858	-0.297754
01208														8.727372	-0.285199	-6.761456	-0.239843	0.176247	0.954679	0.589948	0.807440	-0.000852	-0.770997	0.563007	-0.297636
01209														8.165836	-1.029092	-6.723603	-0.237681	0.178305	0.954838	0.589023	0.808105	-0.004283	-0.772373	0.561403	-0.297097
01210														7.589791	-1.331852	-6.260865	-0.235651	0.179538	0.955110	0.588958	0.808137	-0.006599	-0.773044	0.560965	-0.296179
01211														7.150927	-1.199914	-5.763265	-0.233642	0.179492	0.955612	0.589496	0.807736	-0.007588	-0.773244	0.561556	-0.294531
01212														7.170424	-0.601842	-5.457969	-0.231870	0.177989	0.956324	0.590151	0.807261	-0.007158	-0.773277	0.562716	-0.292221
01213														7.813358	0.315001	-4.822267	-0.230248	0.175032	0.957261	0.590473	0.807038	-0.005539	-0.773516	0.563962	-0.289171
01214														8.886674	1.453132	-4.015869	-0.228897	0.170809	0.958348	0.590565	0.806985	-0.002777	-0.773847	0.565331	-0.285590
01215														10.135615	2.326172	-3.689332	-0.227661	0.165660	0.959545	0.590830	0.806795	0.000891	-0.774009	0.567132	-0.281552
01216														11.180814	2.490607	-3.626673	-0.226485	0.159987	0.960785	0.591225	0.806490	0.005075	-0.774052	0.569190	-0.277246
01217														11.626574	2.229017	-3.343683	-0.225153	0.154129	0.962055	0.591445	0.806292	0.009243	-0.774273	0.571084	-0.272698
01218														11.317566	1.912923	-3.213273	-0.223939	0.148292	0.963255	0.591318	0.806328	0.013337	-0.774722	0.572577	-0.268256
01219														10.513150	1.941400	-3.201019	-0.222950	0.142544	0.964352	0.590843	0.806599	0.017372	-0.775370	0.573654	-0.264052
01220														9.644984	2.163632	-3.136919	-0.222173	0.137068	0.965325	0.589857	0.807231	0.021137	-0.776342	0.574100	-0.260196
01221														8.906153	2.190285	-3.000101	-0.221655	0.131963	0.966155	0.588285	0.808281	0.024565	-0.777683	0.573819	-0.256791
01222														8.276826	2.158300	-2.923797	-0.221436	0.127251	0.966837	0.586045	0.809807	0.027639	-0.779434	0.572730	-0.253895
01223														7.679270	1.995227	-3.000939	-0.221283	0.122862	0.967439	0.583106	0.811832	0.030274	-0.781678	0.570819	-0.251286
01224														7.194163	1.673136	-2.898015	-0.221038	0.118804	0.968002	0.579394	0.814406	0.032348	-0.784503	0.568004	-0.248848
01225														6.899261	1.253959	-2.813105	-0.220446	0.115047	0.968591	0.574907	0.817523	0.033742	-0.787963	0.564288	-0.246360
01226														6.679841	0.856057	-2.657786	-0.219403	0.111592	0.969231	0.569663	0.821158	0.034409	-0.792052	0.559685	-0.243734
01227														6.732179	0.513270	-2.521272	-0.217892	0.108274	0.969948	0.563725	0.825241	0.034516	-0.796704	0.554305	-0.240850
01228														7.057942	0.480281	-2.468374	-0.215965	0.104921	0.970748	0.557106	0.829734	0.034261	-0.801868	0.548209	-0.237645
01229														7.601045	0.690209	-2.527181	-0.213653	0.101274	0.971646	0.549916	0.834530	0.033937	-0.807431	0.541574	-0.233992
01230														8.168128	1.017722	-2.571680	-0.211015	0.097137	0.972644	0.542247	0.839539	0.033797	-0.813290	0.534545	-0.229828
01231														8.797308	1.310254	-2.668027	-0.208132	0.092327	0.973734	0.534129	0.844716	0.034074	-0.819383	0.527191	-0.225127
01232														9.299982	1.512141	-2.793718	-0.205344	0.086919	0.974823	0.525583	0.850026	0.034921	-0.825589	0.519521	-0.220231
01233														9.703195	1.621111	-2.828274	-0.202774	0.080863	0.975881	0.516548	0.855483	0.036445	-0.831902	0.511479	-0.215239
01234														9.891021	1.713070	-2.805854	-0.200598	0.074404	0.976844	0.507235	0.860944	0.038586	-0.838137	0.503230	-0.210444
01235														9.833359	1.713561	-2.802063	-0.198670	0.067648	0.977729	0.497763	0.866334	0.041202	-0.844253	0.494863	-0.205787
01236														9.660943	1.599674	-2.667715	-0.196890	0.060898	0.978532	0.488279	0.871577	0.044005	-0.850187	0.486461	-0.201341
01237														9.385967	1.393161	-2.555178	-0.195098	0.054284	0.979280	0.478845	0.876651	0.046804	-0.855946	0.478055	-0.197027
01238														9.136866	1.100358	-2.497611	-0.193239	0.048063	0.979974	0.469569	0.881515	0.049359	-0.861489	0.469703	-0.192912
01239														8.966462	0.902097	-2.368463	-0.191165	0.042159	0.980652	0.460426	0.886194	0.051656	-0.866870	0.461392	-0.188821
01240														8.889686	0.838520	-2.286991	-0.189002	0.036674	0.981292	0.451318	0.890750	0.053636	-0.872118	0.453012	-0.184906
01241														8.878923	0.863368	-2.228903	-0.186738	0.031497	0.981905	0.442187	0.895211	0.055379	-0.877268	0.444527	-0.181098
01242														8.975120	0.991315	-2.175359	-0.184457	0.026732	0.982477	0.432974	0.899614	0.056812	-0.882332	0.435866	-0.177514
01243														9.107149	1.192689	-2.137872	-0.182098	0.022199	0.983030	0.423472	0.904049	0.058029	-0.887418	0.426853	-0.174026
01244														9.222014	1.376089	-2.061414	-0.179685	0.018034	0.983559	0.413676	0.908516	0.058916	-0.892517	0.417461	-0.170707
01245														9.306828	1.542921	-1.977957	-0.177213	0.014060	0.984072	0.403573	0.913002	0.059632	-0.897622	0.407712	-0.167471
01246														9.358311	1.627308	-1.829549	-0.174654	0.010295	0.984576	0.393129	0.917514	0.060143	-0.902743	0.397570	-0.164295
01247														9.408792	1.661444	-1.700933	-0.172034	0.006652	0.985069	0.382405	0.922008	0.060557	-0.907839	0.387113	-0.161161
01248														9.467029	1.652161	-1.612303	-0.169350	0.003208	0.985551	0.371368	0.926493	0.060798	-0.912911	0.376298	-0.158093
01249														9.524958	1.643028	-1.523476	-0.166516	-0.000097	0.986039	0.359970	0.930975	0.060881	-0.917984	0.365082	-0.154987
01250														9.603792	1.590160	-1.439962	-0.163639	-0.003121	0.986515	0.348297	0.935415	0.060733	-0.922990	0.353539	-0.151984
01251														9.703842	1.493231	-1.360035	-0.160626	-0.005936	0.986998	0.336237	0.939840	0.060372	-0.927979	0.341562	-0.148967
01252														9.700435	1.378988	-1.349566	-0.157637	-0.008412	0.987461	0.323785	0.944243	0.059732	-0.932906	0.329141	-0.146124
01253														9.672670	1.386285	-1.340838	-0.154528	-0.010668	0.987931	0.310809	0.948648	0.058859	-0.937827	0.316153	-0.143277
01254														9.525961	1.385800	-1.326479	-0.151201	-0.012617	0.988423	0.297324	0.953035	0.057648	-0.942728	0.302598	-0.140348
01255														9.350905	1.366985	-1.301294	-0.147719	-0.014263	0.988926	0.283330	0.957378	0.056130	-0.947577	0.288484	-0.137382
01256														9.216409	1.363731	-1.257162	-0.144051	-0.015458	0.989449	0.268920	0.961638	0.054174	-0.952329	0.273887	-0.134368
01257														9.134913	1.328406	-1.173212	-0.140360	-0.016210	0.989968	0.254142	0.965776	0.051847	-0.956928	0.258869	-0.131437
01258														9.122446	1.352660	-1.051236	-0.136707	-0.016372	0.990476	0.239166	0.969740	0.049039	-0.961307	0.243592	-0.128654
01259														9.250589	1.336054	-0.936359	-0.133257	-0.015902	0.990954	0.224086	0.973495	0.045755	-0.965416	0.228156	-0.126162
01260														9.375082	1.368606	-0.871083	-0.130185	-0.014747	0.991380	0.208956	0.977024	0.041973	-0.969221	0.212619	-0.124113
01261														9.654022	1.256728	-0.795071	-0.127607	-0.012996	0.991740	0.193826	0.980308	0.037786	-0.972701	0.197047	-0.122575
01262														9.777540	1.105973	-0.921100	-0.125515	-0.010633	0.992035	0.178745	0.983337	0.033155	-0.975857	0.181483	-0.121523
01263														9.815828	0.889771	-0.928941	-0.123785	-0.007921	0.992277	0.163594	0.986122	0.028280	-0.978731	0.165831	-0.120771
01264														9.854755	0.738611	-0.820705	-0.122312	-0.004986	0.992479	0.148449	0.988646	0.023261	-0.981327	0.150178	-0.120183
01265														9.815592	0.593441	-0.608823	-0.120921	-0.002089	0.992660	0.133447	0.990886	0.018341	-0.983651	0.134686	-0.119540
01266														9.735148	0.434989	-0.410583	-0.119512	0.000670	0.992833	0.118879	0.992815	0.013640	-0.985690	0.119657	-0.118733
01267														9.661511	0.277269	-0.283202	-0.117996	0.003143	0.993009	0.104846	0.994445	0.009311	-0.987463	0.105212	-0.117670
01268														9.628627	0.103365	-0.080336	-0.116387	0.005366	0.993189	0.091515	0.995789	0.005344	-0.988979	0.091513	-0.116388
01269														9.704032	0.047446	0.148918	-0.114688	0.007295	0.993375	0.078881	0.996882	0.001786	-0.990265	0.078563	-0.114906
01270														9.816742	0.283256	0.342717	-0.112983	0.009041	0.993556	0.066738	0.997769	-0.001490	-0.991353	0.066140	-0.113334
01271														9.977743	0.556176	0.444776	-0.111310	0.010681	0.993728	0.054785	0.998488	-0.004596	-0.992275	0.053930	-0.111726
01272														10.195171	0.835354	0.324235	-0.109833	0.012504	0.993871	0.042742	0.999055	-0.007846	-0.993031	0.041618	-0.110264
01273														10.423534	0.998646	0.176567	-0.108694	0.014586	0.993968	0.030446	0.999472	-0.011338	-0.993609	0.029030	-0.109081
01274														10.565252	0.989030	0.177780	-0.108196	0.016894	0.993986	0.018022	0.999725	-0.015030	-0.993966	0.016288	-0.108470
01275														10.639134	0.974406	0.276090	-0.108431	0.019201	0.993919	0.005396	0.999810	-0.018726	-0.994089	0.003333	-0.108514
01276														10.542635	0.927458	0.323893	-0.109313	0.021498	0.993775	-0.007398	0.999721	-0.022440	-0.993980	-0.009805	-0.109123
01277														10.418369	0.925758	0.458252	-0.110563	0.023470	0.993592	-0.020337	0.999458	-0.025872	-0.993661	-0.023067	-0.110026
01278														10.204198	0.961269	0.548629	-0.111926	0.025118	0.993399	-0.033431	0.999019	-0.029027	-0.993154	-0.036459	-0.110976
01279														9.991315	1.022203	0.690183	-0.113170	0.026127	0.993232	-0.046647	0.998412	-0.031578	-0.992480	-0.049905	-0.111771
01280														9.829993	1.113713	0.904296	-0.114254	0.026559	0.993096	-0.059917	0.997639	-0.033574	-0.991643	-0.063340	-0.112393
01281														9.735962	1.211401	1.012408	-0.115325	0.026440	0.992976	-0.073111	0.996708	-0.035031	-0.990634	-0.076638	-0.113012
01282														9.669179	1.251186	1.059551	-0.116521	0.025996	0.992848	-0.086231	0.995618	-0.036189	-0.989438	-0.089831	-0.113769
01283														9.629551	1.157711	1.086719	-0.117920	0.025435	0.992697	-0.099145	0.994375	-0.037255	-0.988061	-0.102814	-0.114735
01284														9.629948	0.976867	0.772083	-0.119460	0.025102	0.992522	-0.111801	0.992982	-0.038570	-0.986524	-0.115573	-0.115815
01285														9.562042	0.603987	0.659873	-0.121023	0.024918	0.992337	-0.124008	0.991474	-0.040020	-0.984873	-0.127901	-0.116902
01286														9.590804	0.206186	0.467060	-0.122718	0.024877	0.992130	-0.135131	0.989957	-0.041537	-0.983199	-0.139165	-0.118124
01287														9.593825	-0.355676	-0.123998	-0.124424	0.024855	0.991918	-0.145290	0.988454	-0.042993	-0.981534	-0.149466	-0.119376
01288														9.777190	-1.277933	-1.031450	-0.126106	0.024771	0.991707	-0.154402	0.987015	-0.044288	-0.979927	-0.158707	-0.120644
01289														10.179209	-2.290539	-1.812477	-0.127727	0.024429	0.991509	-0.162202	0.985723	-0.045181	-0.978456	-0.166595	-0.121941
01290														10.904636	-3.350118	-2.386438	-0.129800	0.023402	0.991264	-0.167579	0.984822	-0.045193	-0.977276	-0.171981	-0.123909
01291														11.556081	-4.231451	-3.426178	-0.132716	0.021158	0.990928	-0.169395	0.984578	-0.043710	-0.976571	-0.173660	-0.127085
01292														12.101773	-4.914321	-4.393841	-0.136614	0.017591	0.990468	-0.167420	0.985050	-0.040586	-0.976375	-0.171368	-0.131626
01293														12.655523	-5.359376	-4.768389	-0.141118	0.012965	0.989908	-0.162910	0.985979	-0.036137	-0.976497	-0.166366	-0.137028
01294														13.199019	-5.305167	-4.153507	-0.145187	0.007573	0.989375	-0.158109	0.986943	-0.030756	-0.976689	-0.160894	-0.142094
01295														13.944380	-4.360512	-3.423705	-0.147937	0.001419	0.988996	-0.154599	0.987672	-0.024542	-0.976839	-0.156528	-0.145894
01296														14.825662	-2.144426	-3.348802	-0.151195	-0.005567	0.988488	-0.150972	0.988383	-0.017525	-0.976907	-0.151884	-0.150279
01297														14.322545	0.411804	-3.653225	-0.155228	-0.012763	0.987796	-0.148580	0.988844	-0.010572	-0.976641	-0.148408	-0.155393
01298														13.262621	2.330241	-3.689205	-0.159528	-0.019071	0.987009	-0.148717	0.988868	-0.004930	-0.975927	-0.147571	-0.160589
01299														12.052567	3.367722	-3.855650	-0.164522	-0.023833	0.986085	-0.150992	0.988534	-0.001299	-0.974748	-0.149104	-0.166234
01300														10.895248	3.471024	-4.316293	-0.170444	-0.026921	0.985000	-0.155050	0.987907	0.000171	-0.973092	-0.152695	-0.172557
01301														10.097234	2.683304	-4.669714	-0.177127	-0.028640	0.983771	-0.160554	0.987027	-0.000173	-0.971004	-0.157979	-0.179427
01302														9.626787	1.011129	-4.729279	-0.184488	-0.029430	0.982394	-0.167081	0.985941	-0.001840	-0.968529	-0.164479	-0.186811
01303														9.620044	-0.909179	-4.680571	-0.192136	-0.030183	0.980904	-0.174423	0.984663	-0.003866	-0.965743	-0.171835	-0.194454
01304														9.869824	-2.550625	-4.583569	-0.199630	-0.031678	0.979359	-0.182462	0.983198	-0.005391	-0.962733	-0.179772	-0.202056
01305														10.117676	-3.449948	-4.302840	-0.206698	-0.034415	0.977799	-0.190987	0.981575	-0.005825	-0.959583	-0.187951	-0.209463
01306														10.082365	-3.483578	-4.031014	-0.213394	-0.038109	0.976223	-0.199936	0.979794	-0.005456	-0.956289	-0.196347	-0.216702
01307														9.692375	-2.913487	-3.790666	-0.219992	-0.042237	0.974587	-0.209119	0.977878	-0.004824	-0.952824	-0.204866	-0.223958
01308														8.987192	-2.263041	-3.568567	-0.226642	-0.046325	0.972876	-0.218315	0.975868	-0.004391	-0.949195	-0.213389	-0.231286
01309														8.229001	-1.928178	-3.355265	-0.233328	-0.050190	0.971102	-0.227243	0.973829	-0.004269	-0.945473	-0.221672	-0.238627
01310														7.563293	-1.835688	-3.304788	-0.240062	-0.053486	0.969283	-0.235749	0.971802	-0.004763	-0.941697	-0.229651	-0.245902
01311														7.024736	-1.842895	-3.286840	-0.246826	-0.056078	0.967436	-0.243722	0.969827	-0.005965	-0.937911	-0.237258	-0.253046
01312														6.670731	-1.982441	-3.381097	-0.253596	-0.057853	0.965579	-0.251108	0.967926	-0.007957	-0.934149	-0.244482	-0.259989
01313														6.513381	-2.073663	-3.429120	-0.260069	-0.058915	0.963791	-0.257913	0.966111	-0.010539	-0.930508	-0.251315	-0.266451
01314														6.628206	-2.038883	-3.571838	-0.266087	-0.059264	0.962126	-0.264019	0.964421	-0.013611	-0.927088	-0.257641	-0.272267
01315														6.928906	-1.987360	-3.539030	-0.271615	-0.059072	0.960591	-0.269386	0.962883	-0.016958	-0.923935	-0.263376	-0.277446
01316														7.401144	-1.842477	-3.415304	-0.276519	-0.058362	0.959235	-0.274201	0.961453	-0.020547	-0.921060	-0.268705	-0.281863
01317														7.969335	-1.659453	-3.336931	-0.280955	-0.057289	0.958010	-0.278615	0.960095	-0.024295	-0.918389	-0.273742	-0.285705
01318														8.450850	-1.477082	-3.204504	-0.284890	-0.056032	0.956921	-0.282867	0.958748	-0.028075	-0.915873	-0.278679	-0.288987
01319														8.797330	-1.306110	-3.103204	-0.288332	-0.054903	0.955955	-0.287200	0.957348	-0.031642	-0.913445	-0.283673	-0.291802
01320														8.854919	-1.134575	-2.938530	-0.291202	-0.054019	0.955135	-0.291776	0.955850	-0.034898	-0.911081	-0.288847	-0.294107
01321														8.608273	-1.023376	-2.874012	-0.293410	-0.053749	0.954474	-0.296703	0.954234	-0.037472	-0.908778	-0.294190	-0.295930
01322														8.266975	-0.935706	-2.923558	-0.294875	-0.054202	0.953997	-0.301988	0.952504	-0.039226	-0.906561	-0.299662	-0.297238
01323														7.965943	-0.764858	-2.935238	-0.295573	-0.055512	0.953706	-0.307623	0.950667	-0.040004	-0.904436	-0.305206	-0.298069
01324														7.877329	-0.641051	-3.007694	-0.295504	-0.057548	0.953607	-0.313721	0.948674	-0.039965	-0.902362	-0.310976	-0.298391
01325														7.980281	-0.579927	-3.140909	-0.294924	-0.060175	0.953624	-0.320263	0.946512	-0.039320	-0.900251	-0.317007	-0.298421
01326														8.197501	-0.506928	-3.221974	-0.293896	-0.063266	0.953741	-0.327250	0.944165	-0.038212	-0.898072	-0.323342	-0.298190
01327														8.488005	-0.448539	-3.250645	-0.292663	-0.066701	0.953886	-0.334611	0.941637	-0.036818	-0.895759	-0.329956	-0.297902
01328														8.784727	-0.527626	-3.301571	-0.291409	-0.070349	0.954008	-0.342370	0.938900	-0.035345	-0.893232	-0.336924	-0.297689
01329														9.097854	-0.632285	-3.418377	-0.290268	-0.074265	0.954059	-0.350466	0.935967	-0.033770	-0.890460	-0.344167	-0.297708
01330														9.427521	-0.711401	-3.460787	-0.289367	-0.078382	0.954004	-0.358789	0.932864	-0.032182	-0.887433	-0.351598	-0.298062
01331														9.688669	-0.783485	-3.579712	-0.288791	-0.082641	0.953819	-0.367427	0.929545	-0.030709	-0.884080	-0.359328	-0.298808
01332														9.764853	-0.918834	-3.526703	-0.288301	-0.086904	0.953588	-0.376312	0.926027	-0.029379	-0.880495	-0.367317	-0.299677
01333														9.760557	-1.033091	-3.557796	-0.287936	-0.091149	0.953302	-0.385327	0.922349	-0.028195	-0.876707	-0.375452	-0.300700
01334														9.659983	-1.217716	-3.525207	-0.287645	-0.095285	0.952985	-0.394408	0.918533	-0.027206	-0.872756	-0.383691	-0.301793
01335														9.548545	-1.425586	-3.454964	-0.287499	-0.099279	0.952621	-0.403464	0.914613	-0.026447	-0.868655	-0.391952	-0.303006
01336														9.555971	-1.549416	-3.393686	-0.287636	-0.103116	0.952172	-0.412422	0.910623	-0.025970	-0.864392	-0.400167	-0.304455
01337														9.511727	-1.665633	-3.462326	-0.288094	-0.106711	0.951638	-0.421401	0.906504	-0.025922	-0.859897	-0.408489	-0.306126
01338														9.492278	-1.720784	-3.416030	-0.288628	-0.109959	0.951106	-0.430119	0.902392	-0.026199	-0.855390	-0.416650	-0.307751
01339														9.353535	-1.828147	-3.401565	-0.289234	-0.112963	0.950570	-0.438582	0.898294	-0.026699	-0.850876	-0.424625	-0.309360
01340														9.210467	-1.842822	-3.350675	-0.289799	-0.115663	0.950073	-0.446634	0.894298	-0.027363	-0.846484	-0.432265	-0.310826
01341														9.075475	-1.887437	-3.395135	-0.290461	-0.118181	0.949561	-0.454299	0.890404	-0.028147	-0.842167	-0.439560	-0.312317
01342														9.014929	-1.841489	-3.499401	-0.291251	-0.120513	0.949025	-0.461665	0.886577	-0.029099	-0.837877	-0.446607	-0.313854
01343														8.925528	-1.724859	-3.625453	-0.292267	-0.122873	0.948410	-0.468916	0.882728	-0.030140	-0.833485	-0.453534	-0.315609
01344														8.825829	-1.480831	-3.774360	-0.293558	-0.125435	0.947676	-0.476126	0.878825	-0.031166	-0.828932	-0.460362	-0.317709
01345														8.730365	-1.229106	-4.021421	-0.295232	-0.128370	0.946763	-0.483390	0.874816	-0.032122	-0.824119	-0.467139	-0.320326
01346														8.716217	-1.001948	-4.067653	-0.297112	-0.131732	0.945712	-0.490969	0.870553	-0.032984	-0.818947	-0.474115	-0.323328
01347														8.812140	-0.897164	-4.018562	-0.299148	-0.135441	0.944546	-0.498756	0.866084	-0.033771	-0.813482	-0.481200	-0.326639
01348														8.890404	-0.764285	-4.111378	-0.301151	-0.139576	0.943306	-0.506906	0.861315	-0.034386	-0.807685	-0.488523	-0.330138
01349														9.060053	-0.699888	-4.024718	-0.303115	-0.144236	0.941975	-0.515386	0.856254	-0.034734	-0.801560	-0.496009	-0.333881
01350														9.110291	-0.644235	-3.963760	-0.304919	-0.149233	0.940614	-0.524146	0.850913	-0.034911	-0.795170	-0.503664	-0.337679
01351														9.146713	-0.613014	-3.920460	-0.306630	-0.154447	0.939215	-0.533109	0.845321	-0.035040	-0.788526	-0.511448	-0.341538
01352														9.167532	-0.498316	-3.816862	-0.308276	-0.159711	0.937794	-0.542098	0.839577	-0.035217	-0.781726	-0.519233	-0.345400
01353														9.248251	-0.506809	-3.737467	-0.310003	-0.164908	0.936324	-0.550995	0.833750	-0.035584	-0.774792	-0.526941	-0.349328
01354														9.197242	-0.627374	-3.765835	-0.311759	-0.170015	0.934827	-0.559786	0.827849	-0.036126	-0.767754	-0.534566	-0.353261
01355														9.119246	-0.906993	-3.657924	-0.313500	-0.175078	0.933309	-0.568420	0.821917	-0.036751	-0.760669	-0.542033	-0.357188
01356														9.001576	-1.073108	-3.603131	-0.315164	-0.180021	0.931807	-0.576874	0.815973	-0.037473	-0.753583	-0.549345	-0.361015
01357														8.722031	-1.258488	-3.600910	-0.316824	-0.184943	0.930279	-0.585152	0.810021	-0.038249	-0.746472	-0.556473	-0.364853
01358														8.500875	-1.442778	-3.610757	-0.318331	-0.189811	0.928783	-0.593086	0.804197	-0.038925	-0.739536	-0.563239	-0.368575
01359														8.408387	-1.481715	-3.661633	-0.319755	-0.194689	0.927282	-0.600615	0.798565	-0.039446	-0.732815	-0.569553	-0.372278
01360														8.408211	-1.485479	-3.651709	-0.320907	-0.199586	0.925842	-0.607794	0.793102	-0.039697	-0.726365	-0.575460	-0.375819
01361														8.480895	-1.423908	-3.577254	-0.321835	-0.204465	0.924454	-0.614644	0.787803	-0.039738	-0.720163	-0.580999	-0.379216
01362														8.647775	-1.326608	-3.536477	-0.322406	-0.209353	0.923161	-0.621266	0.782604	-0.039494	-0.714201	-0.586262	-0.382380
01363														8.745130	-1.112286	-3.444791	-0.322704	-0.214267	0.921928	-0.627668	0.777504	-0.039002	-0.708445	-0.591251	-0.385393
