// Start Time: Unknown
// Update Rate: 100.0Hz
// Filter Profile: human (46.1)
// Option Flags: AHS Disabled ICC Disabled 
// Firmware Version: 4.0.2
PacketCounter	SampleTimeFine	Year	Month	Day	Second	UTC_Nano	UTC_Year	UTC_Month	UTC_Day	UTC_Hour	UTC_Minute	UTC_Second	UTC_Valid	Acc_X	Acc_Y	Acc_Z	Mat[1][1]	Mat[2][1]	Mat[3][1]	Mat[1][2]	Mat[2][2]	Mat[3][2]	Mat[1][3]	Mat[2][3]	Mat[3][3]
00472														9.681784	0.567279	-0.970936	-0.102187	-0.059505	0.992984	0.068831	0.995394	0.066732	-0.992381	0.075167	-0.097620
00473														9.703536	0.660375	-0.943480	-0.102192	-0.059407	0.992989	0.068608	0.995417	0.066613	-0.992396	0.074934	-0.097648
00474														9.726412	0.667523	-0.946427	-0.102104	-0.059314	0.993004	0.068465	0.995435	0.066499	-0.992415	0.074776	-0.097577
00475														9.690538	0.703942	-0.916622	-0.102045	-0.059230	0.993015	0.068183	0.995462	0.066383	-0.992440	0.074481	-0.097543
00476														9.699159	0.734927	-0.966246	-0.101912	-0.059215	0.993029	0.067825	0.995490	0.066323	-0.992479	0.074112	-0.097436
00477														9.673854	0.689361	-0.879159	-0.101779	-0.059173	0.993046	0.067503	0.995518	0.066239	-0.992514	0.073775	-0.097328
00478														9.724433	0.677833	-0.924228	-0.101613	-0.059124	0.993066	0.067166	0.995547	0.066144	-0.992554	0.073421	-0.097189
00479														9.740127	0.617565	-0.970303	-0.101483	-0.059058	0.993083	0.066790	0.995580	0.066031	-0.992593	0.073029	-0.097090
00480														9.729498	0.648754	-0.963196	-0.101384	-0.059005	0.993096	0.066443	0.995609	0.065938	-0.992626	0.072669	-0.097019
00481														9.769074	0.618896	-0.938707	-0.101311	-0.058916	0.993109	0.066162	0.995636	0.065815	-0.992652	0.072374	-0.096971
00482														9.732084	0.633137	-0.982848	-0.101224	-0.058846	0.993122	0.065969	0.995655	0.065720	-0.992674	0.072168	-0.096902
00483														9.709331	0.623994	-0.979932	-0.101188	-0.058753	0.993131	0.065822	0.995672	0.065609	-0.992688	0.072008	-0.096883
00484														9.711790	0.609357	-1.000156	-0.101144	-0.058666	0.993141	0.065639	0.995691	0.065501	-0.992704	0.071814	-0.096857
00485														9.729864	0.643847	-0.962787	-0.101090	-0.058579	0.993151	0.065512	0.995706	0.065398	-0.992718	0.071674	-0.096819
00486														9.711908	0.607597	-1.000083	-0.101033	-0.058521	0.993160	0.065437	0.995716	0.065328	-0.992729	0.071589	-0.096771
00487														9.738288	0.623910	-0.949151	-0.101002	-0.058461	0.993167	0.065308	0.995729	0.065253	-0.992740	0.071452	-0.096753
00488														9.721676	0.660210	-0.976442	-0.100967	-0.058393	0.993175	0.065125	0.995747	0.065165	-0.992756	0.071260	-0.096735
00489														9.694058	0.678500	-0.933864	-0.100989	-0.058312	0.993177	0.064953	0.995765	0.065069	-0.992765	0.071081	-0.096774
00490														9.673663	0.656076	-0.951232	-0.100893	-0.058293	0.993188	0.064834	0.995775	0.065031	-0.992783	0.070953	-0.096687
00491														9.682305	0.687175	-1.001078	-0.100845	-0.058252	0.993195	0.064639	0.995792	0.064967	-0.992800	0.070751	-0.096655
00492														9.721827	0.657847	-0.976533	-0.100752	-0.058219	0.993207	0.064501	0.995804	0.064915	-0.992819	0.070603	-0.096574
00493														9.761352	0.628176	-0.952133	-0.100738	-0.058093	0.993215	0.064418	0.995818	0.064779	-0.992825	0.070507	-0.096574
00494														9.763814	0.613193	-0.972434	-0.100702	-0.057956	0.993227	0.064371	0.995831	0.064634	-0.992832	0.070443	-0.096551
00495														9.732731	0.622204	-0.983421	-0.100700	-0.057813	0.993236	0.064441	0.995835	0.064497	-0.992828	0.070500	-0.096555
00496														9.722059	0.653155	-0.977369	-0.100721	-0.057663	0.993242	0.064645	0.995830	0.064368	-0.992812	0.070692	-0.096573
00497														9.687144	0.603324	-0.978591	-0.100716	-0.057497	0.993252	0.064749	0.995833	0.064212	-0.992806	0.070780	-0.096573
00498														9.680029	0.643246	-0.918479	-0.100672	-0.057409	0.993262	0.064793	0.995836	0.064125	-0.992808	0.070812	-0.096533
00499														9.705335	0.636903	-0.941101	-0.100580	-0.057313	0.993277	0.064844	0.995839	0.064027	-0.992814	0.070847	-0.096445
00500														9.705447	0.635967	-0.940582	-0.100488	-0.057209	0.993292	0.064858	0.995845	0.063918	-0.992822	0.070846	-0.096361
00501														9.705547	0.635211	-0.940060	-0.100390	-0.057164	0.993305	0.064774	0.995855	0.063857	-0.992837	0.070750	-0.096271
00502														9.682807	0.626578	-0.936560	-0.100268	-0.057131	0.993319	0.064657	0.995866	0.063805	-0.992857	0.070623	-0.096159
00503														9.710535	0.606959	-0.978708	-0.100130	-0.057114	0.993334	0.064493	0.995879	0.063762	-0.992882	0.070448	-0.096034
00504														9.714179	0.615477	-0.923809	-0.099940	-0.057097	0.993354	0.064301	0.995895	0.063712	-0.992914	0.070241	-0.095859
00505														9.700116	0.638604	-0.969891	-0.099788	-0.057133	0.993367	0.064073	0.995909	0.063715	-0.992944	0.070006	-0.095719
00506														9.731361	0.628239	-0.957958	-0.099610	-0.057147	0.993384	0.063811	0.995927	0.063692	-0.992978	0.069733	-0.095557
00507														9.702401	0.574941	-0.923688	-0.099421	-0.057185	0.993401	0.063571	0.995943	0.063694	-0.993013	0.069484	-0.095382
00508														9.699049	0.566181	-0.976052	-0.099240	-0.057247	0.993415	0.063312	0.995958	0.063718	-0.993047	0.069218	-0.095214
00509														9.742402	0.596614	-0.960528	-0.099098	-0.057326	0.993425	0.063050	0.995971	0.063762	-0.993078	0.068954	-0.095085
00510														9.737654	0.624252	-0.919493	-0.098951	-0.057339	0.993439	0.062767	0.995991	0.063738	-0.993111	0.068662	-0.094956
00511														9.695906	0.666669	-0.923142	-0.098836	-0.057360	0.993449	0.062516	0.996007	0.063727	-0.993138	0.068405	-0.094855
00512														9.718820	0.674931	-0.925084	-0.098669	-0.057416	0.993463	0.062220	0.996025	0.063743	-0.993173	0.068103	-0.094704
00513														9.687788	0.685478	-0.934798	-0.098500	-0.057482	0.993476	0.061841	0.996047	0.063762	-0.993214	0.067718	-0.094555
00514														9.691329	0.694731	-0.879760	-0.098282	-0.057536	0.993494	0.061414	0.996074	0.063760	-0.993262	0.067281	-0.094363
00515														9.719156	0.675457	-0.921164	-0.098076	-0.057606	0.993510	0.060901	0.996105	0.063768	-0.993314	0.066760	-0.094186
00516														9.769803	0.664376	-0.965680	-0.097915	-0.057684	0.993522	0.060346	0.996138	0.063783	-0.993363	0.066201	-0.094056
00517														9.786439	0.627393	-0.937593	-0.097816	-0.057676	0.993532	0.059883	0.996169	0.063725	-0.993401	0.065729	-0.093988
00518														9.763679	0.618563	-0.934404	-0.097724	-0.057621	0.993544	0.059537	0.996196	0.063631	-0.993431	0.065371	-0.093922
00519														9.709786	0.620044	-0.942238	-0.097659	-0.057610	0.993551	0.059191	0.996220	0.063583	-0.993458	0.065018	-0.093880
00520														9.658326	0.608055	-0.969935	-0.097547	-0.057633	0.993561	0.058817	0.996243	0.063564	-0.993491	0.064639	-0.093791
00521														9.718182	0.601179	-0.927569	-0.097434	-0.057630	0.993572	0.058512	0.996264	0.063524	-0.993520	0.064326	-0.093698
00522														9.703697	0.574536	-0.910231	-0.097297	-0.057675	0.993583	0.058144	0.996285	0.063525	-0.993556	0.063951	-0.093582
00523														9.707631	0.633215	-0.919675	-0.097125	-0.057683	0.993599	0.057813	0.996306	0.063491	-0.993592	0.063610	-0.093432
00524														9.764156	0.617228	-0.930291	-0.096937	-0.057735	0.993614	0.057469	0.996326	0.063500	-0.993630	0.063258	-0.093263
00525														9.707852	0.633328	-0.917256	-0.096782	-0.057784	0.993627	0.057139	0.996344	0.063507	-0.993664	0.062921	-0.093127
00526														9.707935	0.633685	-0.916131	-0.096606	-0.057879	0.993638	0.056762	0.996363	0.063556	-0.993703	0.062540	-0.092969
00527														9.729474	0.569786	-0.927321	-0.096467	-0.057980	0.993646	0.056346	0.996383	0.063610	-0.993740	0.062124	-0.092851
00528														9.737811	0.552044	-0.912458	-0.096293	-0.058086	0.993657	0.055899	0.996405	0.063664	-0.993782	0.061675	-0.092700
00529														9.717508	0.530875	-0.928368	-0.096140	-0.058239	0.993663	0.055541	0.996418	0.063775	-0.993817	0.061320	-0.092561
00530														9.715086	0.545995	-0.907153	-0.095946	-0.058399	0.993672	0.055239	0.996427	0.063895	-0.993853	0.061020	-0.092377
00531														9.681517	0.571586	-0.897050	-0.095823	-0.058598	0.993672	0.055000	0.996429	0.064065	-0.993878	0.060791	-0.092258
00532														9.718909	0.607848	-0.915531	-0.095660	-0.058768	0.993678	0.054833	0.996429	0.064210	-0.993903	0.060629	-0.092096
00533														9.765058	0.674858	-0.984617	-0.095569	-0.058931	0.993677	0.054709	0.996426	0.064356	-0.993918	0.060514	-0.092003
00534														9.765797	0.699463	-0.910723	-0.095525	-0.059007	0.993677	0.054624	0.996427	0.064422	-0.993927	0.060432	-0.091961
00535														9.720119	0.683345	-0.905046	-0.095500	-0.058980	0.993681	0.054514	0.996435	0.064383	-0.993936	0.060318	-0.091944
00536														9.689807	0.716828	-0.842441	-0.095421	-0.058988	0.993688	0.054326	0.996446	0.064369	-0.993954	0.060125	-0.091877
00537														9.706884	0.729582	-0.878567	-0.095313	-0.059052	0.993694	0.054146	0.996454	0.064410	-0.993974	0.059944	-0.091778
00538														9.699857	0.661633	-0.921096	-0.095262	-0.059085	0.993697	0.053990	0.996461	0.064425	-0.993987	0.059787	-0.091735
00539														9.718952	0.610832	-0.913075	-0.095197	-0.059026	0.993707	0.053746	0.996480	0.064340	-0.994006	0.059532	-0.091690
00540														9.738090	0.559927	-0.904639	-0.095065	-0.059044	0.993718	0.053565	0.996490	0.064333	-0.994029	0.059345	-0.091569
00541														9.709561	0.556214	-0.934707	-0.094952	-0.059074	0.993727	0.053488	0.996493	0.064350	-0.994044	0.059263	-0.091459
00542														9.746985	0.590995	-0.953778	-0.094894	-0.059074	0.993733	0.053539	0.996490	0.064350	-0.994047	0.059310	-0.091398
00543														9.738718	0.609173	-0.967636	-0.094888	-0.059025	0.993736	0.053633	0.996488	0.064310	-0.994042	0.059399	-0.091389
00544														9.736195	0.622993	-0.947998	-0.094892	-0.059000	0.993738	0.053812	0.996479	0.064301	-0.994032	0.059576	-0.091383
00545														9.769808	0.598715	-0.956988	-0.094882	-0.058930	0.993743	0.054043	0.996469	0.064251	-0.994021	0.059801	-0.091362
00546														9.761506	0.617007	-0.971126	-0.094911	-0.058928	0.993740	0.054358	0.996450	0.064281	-0.994001	0.060119	-0.091371
00547														9.747605	0.614332	-0.881868	-0.095066	-0.058874	0.993728	0.054741	0.996430	0.064271	-0.993965	0.060507	-0.091504
00548														9.749969	0.600338	-0.903303	-0.095209	-0.058817	0.993718	0.055089	0.996412	0.064254	-0.993932	0.060860	-0.091627
00549														9.707936	0.642543	-0.909927	-0.095372	-0.058736	0.993707	0.055451	0.996394	0.064217	-0.993896	0.061227	-0.091772
00550														9.713613	0.637664	-0.877756	-0.095507	-0.058610	0.993702	0.055779	0.996381	0.064130	-0.993865	0.061553	-0.091892
00551														9.730567	0.649564	-0.915717	-0.095615	-0.058517	0.993697	0.056062	0.996370	0.064069	-0.993838	0.061835	-0.091987
00552														9.741251	0.617016	-0.922888	-0.095707	-0.058467	0.993691	0.056314	0.996357	0.064048	-0.993815	0.062089	-0.092065
00553														9.734078	0.548395	-0.966907	-0.095798	-0.058357	0.993689	0.056667	0.996341	0.063975	-0.993787	0.062438	-0.092140
00554														9.716994	0.535375	-0.931162	-0.095856	-0.058272	0.993688	0.057060	0.996322	0.063931	-0.993758	0.062828	-0.092179
00555														9.758799	0.493093	-0.926988	-0.095933	-0.058273	0.993681	0.057526	0.996292	0.063979	-0.993724	0.063300	-0.092225
00556														9.742942	0.553615	-0.882362	-0.096104	-0.058249	0.993666	0.057942	0.996266	0.064005	-0.993683	0.063726	-0.092370
00557														9.732011	0.586233	-0.877879	-0.096250	-0.058233	0.993652	0.058380	0.996238	0.064040	-0.993644	0.064173	-0.092488
00558														9.705676	0.569353	-0.929831	-0.096342	-0.058275	0.993641	0.058914	0.996201	0.064138	-0.993603	0.064719	-0.092543
00559														9.711777	0.615439	-0.960919	-0.096384	-0.058359	0.993632	0.059390	0.996164	0.064269	-0.993571	0.065206	-0.092549
00560														9.725819	0.593806	-0.913529	-0.096381	-0.058404	0.993630	0.059852	0.996131	0.064357	-0.993543	0.065673	-0.092513
00561														9.746442	0.507032	-0.999089	-0.096314	-0.058450	0.993633	0.060271	0.996100	0.064437	-0.993525	0.066093	-0.092416
00562														9.695889	0.519573	-0.952469	-0.096177	-0.058536	0.993642	0.060857	0.996056	0.064569	-0.993502	0.066680	-0.092235
00563														9.741178	0.488060	-0.892846	-0.096090	-0.058648	0.993643	0.061456	0.996009	0.064730	-0.993474	0.067286	-0.092102
00564														9.739107	0.553297	-0.935778	-0.095949	-0.058817	0.993647	0.062032	0.995959	0.064944	-0.993451	0.067869	-0.091913
00565														9.737008	0.618701	-0.978732	-0.095888	-0.058942	0.993645	0.062732	0.995903	0.065129	-0.993413	0.068579	-0.091798
00566														9.709126	0.640380	-0.935415	-0.095898	-0.059109	0.993635	0.063529	0.995837	0.065371	-0.993362	0.069393	-0.091743
00567														9.693225	0.702455	-0.888938	-0.095898	-0.059245	0.993626	0.064222	0.995779	0.065571	-0.993317	0.070100	-0.091689
00568														9.679829	0.750380	-0.862245	-0.095863	-0.059372	0.993622	0.064814	0.995729	0.065751	-0.993282	0.070704	-0.091605
00569														9.702552	0.760539	-0.864436	-0.095819	-0.059526	0.993617	0.065359	0.995680	0.065953	-0.993251	0.071261	-0.091514
00570														9.748060	0.779107	-0.869582	-0.095806	-0.059705	0.993608	0.065778	0.995638	0.066170	-0.993224	0.071697	-0.091460
00571														9.710634	0.745952	-0.850051	-0.095792	-0.059789	0.993604	0.066089	0.995610	0.066281	-0.993205	0.072015	-0.091420
00572														9.681907	0.743524	-0.880951	-0.095801	-0.059866	0.993599	0.066360	0.995585	0.066384	-0.993186	0.072295	-0.091405
00573														9.672349	0.690327	-0.904426	-0.095765	-0.059924	0.993599	0.066551	0.995567	0.066457	-0.993177	0.072490	-0.091352
00574														9.707093	0.740002	-0.903486	-0.095737	-0.060028	0.993595	0.066760	0.995545	0.066578	-0.993165	0.072707	-0.091304
00575														9.755133	0.743753	-0.929192	-0.095769	-0.060070	0.993589	0.067028	0.995523	0.066648	-0.993144	0.072981	-0.091314
00576														9.680487	0.674542	-0.890790	-0.095756	-0.060074	0.993590	0.067280	0.995504	0.066673	-0.993128	0.073233	-0.091284
00577														9.691605	0.692746	-0.960920	-0.095734	-0.060126	0.993589	0.067555	0.995480	0.066750	-0.993112	0.073513	-0.091240
00578														9.651808	0.672501	-0.920985	-0.095609	-0.060211	0.993596	0.067725	0.995463	0.066841	-0.993112	0.073682	-0.091097
00579														9.726056	0.693241	-0.895266	-0.095617	-0.060240	0.993594	0.067787	0.995456	0.066876	-0.993107	0.073747	-0.091099
00580														9.754632	0.697037	-0.864849	-0.095666	-0.060219	0.993590	0.067926	0.995447	0.066871	-0.993093	0.073888	-0.091140
00581														9.729261	0.702626	-0.842581	-0.095695	-0.060204	0.993588	0.068120	0.995433	0.066877	-0.993077	0.074083	-0.091157
00582														9.677764	0.691134	-0.870965	-0.095688	-0.060230	0.993588	0.068235	0.995423	0.066912	-0.993070	0.074200	-0.091140
00583														9.672714	0.719064	-0.830994	-0.095671	-0.060269	0.993587	0.068266	0.995418	0.066953	-0.993069	0.074234	-0.091118
00584														9.697989	0.714099	-0.853826	-0.095638	-0.060317	0.993587	0.068265	0.995415	0.066999	-0.993073	0.074234	-0.091082
00585														9.734138	0.676815	-0.882825	-0.095570	-0.060342	0.993592	0.068129	0.995424	0.067007	-0.993089	0.074096	-0.091021
00586														9.713833	0.655310	-0.899737	-0.095506	-0.060427	0.993593	0.068012	0.995427	0.067076	-0.993103	0.073983	-0.090959
00587														9.772758	0.626560	-0.931754	-0.095519	-0.060478	0.993589	0.067936	0.995429	0.067121	-0.993107	0.073912	-0.090974
00588														9.744847	0.646166	-0.889563	-0.095579	-0.060489	0.993582	0.067885	0.995432	0.067132	-0.993104	0.073866	-0.091036
00589														9.693307	0.634610	-0.918459	-0.095621	-0.060517	0.993577	0.067821	0.995435	0.067157	-0.993105	0.073807	-0.091080
00590														9.690725	0.648986	-0.898780	-0.095591	-0.060611	0.993574	0.067735	0.995435	0.067242	-0.993113	0.073727	-0.091049
00591														9.730452	0.670974	-0.938010	-0.095546	-0.060686	0.993573	0.067668	0.995435	0.067307	-0.993122	0.073664	-0.091003
00592														9.722872	0.712926	-0.877939	-0.095527	-0.060752	0.993571	0.067580	0.995437	0.067364	-0.993130	0.073580	-0.090986
00593														9.750662	0.694151	-0.920816	-0.095487	-0.060790	0.993573	0.067441	0.995445	0.067386	-0.993143	0.073442	-0.090953
00594														9.716679	0.668904	-0.847904	-0.095485	-0.060873	0.993568	0.067281	0.995451	0.067455	-0.993154	0.073289	-0.090955
00595														9.687994	0.665927	-0.878804	-0.095420	-0.060933	0.993570	0.067147	0.995457	0.067497	-0.993170	0.073156	-0.090895
00596														9.719118	0.656327	-0.867848	-0.095402	-0.061000	0.993568	0.066937	0.995468	0.067544	-0.993186	0.072950	-0.090886
00597														9.713249	0.661368	-0.901608	-0.095353	-0.061041	0.993570	0.066747	0.995480	0.067564	-0.993203	0.072760	-0.090848
00598														9.690405	0.653695	-0.898826	-0.095334	-0.061143	0.993566	0.066522	0.995489	0.067644	-0.993220	0.072543	-0.090837
00599														9.725061	0.703236	-0.898271	-0.095294	-0.061240	0.993564	0.066318	0.995498	0.067720	-0.993238	0.072344	-0.090804
00600														9.753645	0.707407	-0.867557	-0.095293	-0.061265	0.993562	0.066102	0.995512	0.067725	-0.993252	0.072130	-0.090815
00601														9.736841	0.744280	-0.895841	-0.095376	-0.061276	0.993554	0.065927	0.995523	0.067726	-0.993256	0.071961	-0.090909
00602														9.719006	0.708513	-0.933742	-0.095369	-0.061291	0.993553	0.065764	0.995534	0.067726	-0.993267	0.071799	-0.090912
00603														9.755987	0.693547	-0.889578	-0.095388	-0.061222	0.993556	0.065611	0.995550	0.067644	-0.993276	0.071640	-0.090947
00604														9.740697	0.643217	-0.947652	-0.095485	-0.061160	0.993550	0.065481	0.995563	0.067577	-0.993275	0.071511	-0.091057
00605														9.692472	0.640165	-0.923406	-0.095603	-0.061133	0.993541	0.065437	0.995567	0.067555	-0.993266	0.071473	-0.091179
00606														9.700732	0.621557	-0.910939	-0.095687	-0.061076	0.993536	0.065465	0.995569	0.067505	-0.993256	0.071502	-0.091265
00607														9.720948	0.643184	-0.894889	-0.095760	-0.061008	0.993533	0.065460	0.995573	0.067443	-0.993250	0.071495	-0.091342
00608														9.695579	0.648401	-0.873018	-0.095821	-0.060971	0.993529	0.065509	0.995572	0.067415	-0.993241	0.071545	-0.091403
00609														9.709971	0.674867	-0.890144	-0.095810	-0.060949	0.993532	0.065519	0.995573	0.067393	-0.993241	0.071552	-0.091392
00610														9.712467	0.660928	-0.910311	-0.095792	-0.060945	0.993534	0.065339	0.995586	0.067371	-0.993255	0.071370	-0.091387
00611														9.746116	0.636698	-0.919830	-0.095823	-0.060896	0.993534	0.065202	0.995599	0.067311	-0.993261	0.071231	-0.091430
00612														9.728299	0.600539	-0.957364	-0.095823	-0.060883	0.993535	0.065245	0.995597	0.067302	-0.993258	0.071272	-0.091428
00613														9.754429	0.618168	-0.906793	-0.095823	-0.060881	0.993535	0.065271	0.995595	0.067302	-0.993256	0.071298	-0.091427
00614														9.746012	0.636646	-0.920973	-0.095859	-0.060877	0.993532	0.065362	0.995589	0.067309	-0.993247	0.071391	-0.091457
00615														9.723138	0.628508	-0.918846	-0.095930	-0.060857	0.993526	0.065481	0.995581	0.067305	-0.993232	0.071514	-0.091521
00616														9.718070	0.656186	-0.879615	-0.095956	-0.060834	0.993525	0.065554	0.995578	0.067291	-0.993225	0.071586	-0.091543
00617														9.718031	0.656224	-0.880023	-0.095967	-0.060826	0.993524	0.065647	0.995571	0.067292	-0.993217	0.071680	-0.091549
00618														9.712112	0.660913	-0.914097	-0.095985	-0.060830	0.993522	0.065740	0.995564	0.067306	-0.993210	0.071775	-0.091560
00619														9.714564	0.647328	-0.934385	-0.095993	-0.060835	0.993521	0.065852	0.995556	0.067322	-0.993201	0.071888	-0.091560
00620														9.722904	0.629057	-0.920942	-0.096005	-0.060806	0.993522	0.065926	0.995552	0.067301	-0.993195	0.071960	-0.091569
00621														9.709500	0.675133	-0.895068	-0.096005	-0.060815	0.993521	0.065987	0.995547	0.067315	-0.993191	0.072023	-0.091565
00622														9.718019	0.706520	-0.945453	-0.095970	-0.060828	0.993524	0.066088	0.995539	0.067335	-0.993188	0.072123	-0.091521
00623														9.711964	0.661744	-0.915075	-0.095964	-0.060816	0.993525	0.066167	0.995534	0.067330	-0.993183	0.072200	-0.091511
00624														9.722807	0.629687	-0.921532	-0.095982	-0.060807	0.993524	0.066345	0.995522	0.067339	-0.993170	0.072379	-0.091518
00625														9.759979	0.664630	-0.941402	-0.096011	-0.060768	0.993524	0.066590	0.995506	0.067325	-0.993150	0.072623	-0.091533
00626														9.720246	0.643411	-0.902320	-0.096030	-0.060700	0.993526	0.066834	0.995493	0.067280	-0.993132	0.072862	-0.091540
00627														9.709339	0.675395	-0.896615	-0.096083	-0.060663	0.993523	0.067023	0.995481	0.067265	-0.993114	0.073052	-0.091583
00628														9.727095	0.711369	-0.860078	-0.096111	-0.060650	0.993521	0.067252	0.995465	0.067275	-0.993096	0.073282	-0.091596
00629														9.704430	0.752494	-0.921597	-0.096120	-0.060572	0.993525	0.067480	0.995454	0.067219	-0.993080	0.073504	-0.091595
00630														9.695892	0.721066	-0.871598	-0.096141	-0.060539	0.993525	0.067605	0.995447	0.067198	-0.993069	0.073628	-0.091610
00631														9.712775	0.733601	-0.908655	-0.096166	-0.060479	0.993526	0.067642	0.995448	0.067143	-0.993064	0.073661	-0.091637
00632														9.711716	0.660507	-0.918588	-0.096148	-0.060416	0.993532	0.067631	0.995453	0.067077	-0.993067	0.073643	-0.091625
00633														9.688917	0.651723	-0.916131	-0.096187	-0.060350	0.993532	0.067631	0.995457	0.067015	-0.993063	0.073639	-0.091668
00634														9.694818	0.646795	-0.882608	-0.096126	-0.060315	0.993540	0.067646	0.995459	0.066977	-0.993068	0.073647	-0.091609
00635														9.711754	0.659093	-0.919209	-0.096129	-0.060229	0.993545	0.067684	0.995462	0.066894	-0.993065	0.073678	-0.091616
00636														9.700894	0.690845	-0.913279	-0.096124	-0.060207	0.993547	0.067657	0.995465	0.066869	-0.993067	0.073648	-0.091615
00637														9.735463	0.689809	-0.849067	-0.096138	-0.060164	0.993548	0.067662	0.995468	0.066827	-0.993066	0.073650	-0.091632
00638														9.706758	0.685859	-0.880236	-0.096128	-0.060144	0.993550	0.067602	0.995474	0.066801	-0.993071	0.073587	-0.091627
00639														9.689858	0.672873	-0.843789	-0.096096	-0.060120	0.993555	0.067458	0.995486	0.066761	-0.993084	0.073439	-0.091607
00640														9.700885	0.689811	-0.914158	-0.096056	-0.060090	0.993560	0.067261	0.995503	0.066711	-0.993101	0.073235	-0.091582
00641														9.744020	0.719853	-0.899945	-0.096004	-0.060086	0.993566	0.067034	0.995520	0.066682	-0.993121	0.073005	-0.091547
00642														9.740477	0.660687	-0.889572	-0.095983	-0.060037	0.993571	0.066800	0.995541	0.066609	-0.993139	0.072764	-0.091544
00643														9.732117	0.678522	-0.903545	-0.095951	-0.060014	0.993575	0.066535	0.995562	0.066559	-0.993160	0.072494	-0.091532
00644														9.703426	0.674374	-0.934665	-0.095946	-0.059993	0.993577	0.066267	0.995583	0.066513	-0.993178	0.072223	-0.091547
00645														9.694873	0.643002	-0.884763	-0.095959	-0.059975	0.993577	0.065979	0.995605	0.066469	-0.993196	0.071934	-0.091581
00646														9.742931	0.645379	-0.910869	-0.095932	-0.059975	0.993579	0.065733	0.995623	0.066445	-0.993215	0.071685	-0.091570
00647														9.722582	0.623001	-0.928425	-0.095982	-0.059941	0.993577	0.065542	0.995638	0.066397	-0.993223	0.071494	-0.091635
00648														9.751222	0.626328	-0.898513	-0.096034	-0.059886	0.993575	0.065333	0.995657	0.066326	-0.993232	0.071283	-0.091705
00649														9.730824	0.603556	-0.916799	-0.096157	-0.059811	0.993568	0.065182	0.995672	0.066246	-0.993230	0.071133	-0.091842
00650														9.698215	0.699403	-0.899547	-0.096176	-0.059721	0.993571	0.065113	0.995683	0.066151	-0.993232	0.071056	-0.091872
00651														9.709062	0.666319	-0.906350	-0.096223	-0.059617	0.993573	0.065057	0.995694	0.066045	-0.993231	0.070994	-0.091930
00652														9.736794	0.645550	-0.950008	-0.096279	-0.059466	0.993576	0.064943	0.995712	0.065887	-0.993234	0.070869	-0.092004
00653														9.713989	0.636113	-0.947963	-0.096318	-0.059366	0.993579	0.064836	0.995726	0.065779	-0.993237	0.070756	-0.092057
00654														9.674276	0.614276	-0.909328	-0.096393	-0.059254	0.993578	0.064740	0.995739	0.065663	-0.993236	0.070654	-0.092146
00655														9.701957	0.593848	-0.953030	-0.096437	-0.059186	0.993578	0.064653	0.995750	0.065591	-0.993237	0.070563	-0.092201
00656														9.713761	0.584607	-0.886189	-0.096451	-0.059146	0.993579	0.064570	0.995758	0.065544	-0.993241	0.070477	-0.092223
00657														9.730610	0.596727	-0.923521	-0.096507	-0.059074	0.993578	0.064549	0.995764	0.065474	-0.993237	0.070454	-0.092285
00658														9.719730	0.628531	-0.918229	-0.096543	-0.059048	0.993576	0.064431	0.995774	0.065439	-0.993241	0.070335	-0.092330
00659														9.717236	0.642098	-0.899018	-0.096573	-0.058999	0.993576	0.064295	0.995787	0.065379	-0.993247	0.070195	-0.092373
00660														9.717193	0.641937	-0.899594	-0.096587	-0.059017	0.993573	0.064147	0.995796	0.065385	-0.993255	0.070050	-0.092395
00661														9.742380	0.636326	-0.923046	-0.096629	-0.059022	0.993569	0.064013	0.995805	0.065381	-0.993260	0.069919	-0.092445
00662														9.719518	0.628082	-0.920781	-0.096657	-0.059012	0.993567	0.063878	0.995815	0.065359	-0.993266	0.069784	-0.092483
00663														9.716997	0.641906	-0.901725	-0.096729	-0.058992	0.993561	0.063772	0.995824	0.065335	-0.993266	0.069681	-0.092563
00664														9.731332	0.668193	-0.919561	-0.096803	-0.058950	0.993556	0.063749	0.995828	0.065296	-0.993260	0.069659	-0.092641
00665														9.704961	0.649991	-0.971315	-0.096892	-0.058888	0.993551	0.063759	0.995830	0.065241	-0.993251	0.069670	-0.092734
00666														9.750389	0.616843	-0.913984	-0.096975	-0.058819	0.993547	0.063717	0.995838	0.065174	-0.993245	0.069626	-0.092823
00667														9.687945	0.636529	-0.936860	-0.097056	-0.058772	0.993542	0.063713	0.995841	0.065132	-0.993238	0.069623	-0.092908
00668														9.725003	0.621900	-0.893186	-0.097109	-0.058739	0.993539	0.063694	0.995844	0.065100	-0.993234	0.069604	-0.092965
00669														9.752604	0.601866	-0.936891	-0.097193	-0.058679	0.993534	0.063671	0.995849	0.065044	-0.993227	0.069581	-0.093054
00670														9.727300	0.607091	-0.915131	-0.097273	-0.058599	0.993531	0.063697	0.995852	0.064972	-0.993217	0.069605	-0.093137
00671														9.696040	0.616761	-0.927038	-0.097346	-0.058567	0.993526	0.063678	0.995855	0.064944	-0.993211	0.069587	-0.093213
00672														9.721182	0.611045	-0.950760	-0.097394	-0.058583	0.993520	0.063647	0.995856	0.064960	-0.993209	0.069561	-0.093262
00673														9.749867	0.615023	-0.920747	-0.097438	-0.058563	0.993517	0.063580	0.995862	0.064936	-0.993209	0.069495	-0.093312
00674														9.737799	0.574713	-0.924628	-0.097510	-0.058593	0.993508	0.063510	0.995864	0.064965	-0.993206	0.069432	-0.093385
00675														9.704105	0.598697	-0.916476	-0.097552	-0.058538	0.993507	0.063441	0.995873	0.064907	-0.993206	0.069361	-0.093435
00676														9.729285	0.592799	-0.939858	-0.097558	-0.058547	0.993506	0.063451	0.995871	0.064917	-0.993205	0.069372	-0.093440
00677														9.743642	0.619518	-0.957022	-0.097566	-0.058564	0.993504	0.063477	0.995868	0.064937	-0.993203	0.069401	-0.093446
00678														9.726755	0.607417	-0.920688	-0.097593	-0.058600	0.993500	0.063467	0.995867	0.064974	-0.993201	0.069395	-0.093470
00679														9.695488	0.617836	-0.932086	-0.097624	-0.058621	0.993495	0.063421	0.995868	0.064993	-0.993201	0.069354	-0.093503
00680														9.736132	0.662636	-0.899119	-0.097701	-0.058659	0.993486	0.063423	0.995865	0.065037	-0.993193	0.069364	-0.093576
00681														9.707248	0.659322	-0.930573	-0.097729	-0.058716	0.993480	0.063466	0.995858	0.065099	-0.993187	0.069415	-0.093598
00682														9.738350	0.649739	-0.920396	-0.097795	-0.058724	0.993473	0.063413	0.995861	0.065108	-0.993184	0.069366	-0.093666
00683														9.698657	0.678131	-0.945979	-0.097848	-0.058712	0.993468	0.063432	0.995861	0.065101	-0.993178	0.069387	-0.093719
00684														9.698563	0.678316	-0.946818	-0.097917	-0.058730	0.993460	0.063433	0.995859	0.065124	-0.993171	0.069395	-0.093786
00685														9.698475	0.678535	-0.947557	-0.097950	-0.058726	0.993457	0.063455	0.995858	0.065124	-0.993166	0.069418	-0.093818
00686														9.726043	0.658881	-0.990814	-0.097972	-0.058729	0.993455	0.063425	0.995859	0.065126	-0.993166	0.069390	-0.093841
00687														9.706768	0.660336	-0.934855	-0.098025	-0.058693	0.993452	0.063373	0.995865	0.065089	-0.993164	0.069338	-0.093900
00688														9.715112	0.642130	-0.921662	-0.098054	-0.058717	0.993447	0.063344	0.995865	0.065112	-0.993163	0.069314	-0.093929
00689														9.700661	0.664851	-0.969540	-0.098026	-0.058726	0.993450	0.063324	0.995866	0.065117	-0.993167	0.069292	-0.093902
00690														9.727012	0.682989	-0.919073	-0.098018	-0.058741	0.993450	0.063251	0.995871	0.065124	-0.993173	0.069220	-0.093898
00691														9.681399	0.666580	-0.913343	-0.098026	-0.058724	0.993450	0.063172	0.995877	0.065100	-0.993177	0.069140	-0.093912
00692														9.641742	0.694575	-0.938674	-0.098067	-0.058684	0.993448	0.063035	0.995889	0.065051	-0.993182	0.069001	-0.093965
00693														9.557674	0.778626	-0.948845	-0.098027	-0.058627	0.993455	0.062977	0.995897	0.064986	-0.993189	0.068935	-0.093933
00694														9.536043	0.891324	-1.001460	-0.097992	-0.058535	0.993464	0.062986	0.995903	0.064892	-0.993192	0.068933	-0.093904
00695														9.568516	0.952956	-0.981460	-0.097911	-0.058388	0.993481	0.063084	0.995906	0.064748	-0.993194	0.069012	-0.093826
00696														9.784707	0.944369	-0.949281	-0.097773	-0.058232	0.993504	0.063239	0.995906	0.064596	-0.993198	0.069144	-0.093690
00697														9.986638	0.749786	-0.937235	-0.097587	-0.058068	0.993531	0.063385	0.995907	0.064433	-0.993207	0.069262	-0.093507
00698														10.084083	0.409371	-0.925628	-0.097580	-0.057968	0.993538	0.063197	0.995927	0.064314	-0.993219	0.069065	-0.093519
00699														9.936514	-0.025214	-0.848633	-0.097734	-0.057870	0.993529	0.062834	0.995957	0.064193	-0.993227	0.068701	-0.093703
00700														9.844019	-0.388308	-0.755610	-0.097938	-0.057872	0.993508	0.062539	0.995977	0.064181	-0.993226	0.068419	-0.093924
00701														9.808008	-0.508380	-0.765671	-0.098014	-0.058110	0.993487	0.062501	0.995964	0.064421	-0.993221	0.068408	-0.093986
00702														9.915901	-0.251441	-0.842829	-0.098140	-0.058501	0.993452	0.062949	0.995907	0.064864	-0.993180	0.068902	-0.094056
00703														9.923718	0.152003	-0.885632	-0.098536	-0.058968	0.993385	0.063728	0.995820	0.065434	-0.993091	0.069754	-0.094366
00704														9.762984	0.517196	-0.922507	-0.099094	-0.059508	0.993297	0.064592	0.995720	0.066097	-0.992979	0.070709	-0.094826
00705														9.610325	0.753928	-1.047470	-0.099563	-0.060040	0.993218	0.065244	0.995636	0.066727	-0.992890	0.071445	-0.095211
00706														9.572809	1.006213	-1.048151	-0.099823	-0.060576	0.993160	0.065511	0.995579	0.067308	-0.992846	0.071782	-0.095413
00707														9.593974	1.228260	-1.080081	-0.100108	-0.061058	0.993101	0.065649	0.995535	0.067825	-0.992808	0.071986	-0.095653
00708														9.553923	1.382731	-1.162722	-0.100416	-0.061423	0.993048	0.065863	0.995493	0.068234	-0.992763	0.072257	-0.095918
00709														9.439987	1.465891	-1.205089	-0.100604	-0.061579	0.993019	0.065908	0.995478	0.068409	-0.992741	0.072330	-0.096091
00710														9.294136	1.594435	-1.163366	-0.100531	-0.061562	0.993028	0.065853	0.995484	0.068381	-0.992752	0.072268	-0.096023
00711														9.385445	1.626503	-1.174876	-0.100339	-0.061355	0.993060	0.065824	0.995501	0.068156	-0.992774	0.072206	-0.095849
00712														9.468085	1.553212	-1.144031	-0.100065	-0.060974	0.993111	0.065655	0.995540	0.067739	-0.992812	0.071981	-0.095615
00713														9.539419	1.388554	-1.051415	-0.099776	-0.060408	0.993175	0.065427	0.995597	0.067128	-0.992857	0.071678	-0.095384
00714														9.551850	1.190489	-1.093066	-0.099398	-0.059706	0.993255	0.065236	0.995660	0.066379	-0.992907	0.071394	-0.095071
00715														9.592057	1.032638	-1.009253	-0.098802	-0.058852	0.993365	0.064963	0.995739	0.065454	-0.992984	0.070999	-0.094557
00716														9.716167	0.838089	-0.978737	-0.098117	-0.057959	0.993486	0.064647	0.995823	0.064480	-0.993073	0.070553	-0.093960
00717														9.889128	0.461499	-0.873513	-0.097556	-0.057137	0.993589	0.064475	0.995891	0.063600	-0.993139	0.070266	-0.093471
00718														9.966396	0.042971	-0.810617	-0.097154	-0.056376	0.993671	0.064280	0.995955	0.062791	-0.993191	0.069973	-0.093137
00719														9.943382	-0.278691	-0.648218	-0.096817	-0.055687	0.993743	0.064067	0.996014	0.062056	-0.993238	0.069674	-0.092864
00720														9.933402	-0.436810	-0.539302	-0.096573	-0.055200	0.993794	0.064028	0.996048	0.061547	-0.993264	0.069574	-0.092657
00721														10.013844	-0.375668	-0.544398	-0.096516	-0.054936	0.993814	0.064201	0.996053	0.061295	-0.993259	0.069720	-0.092608
00722														10.008297	-0.165037	-0.606243	-0.096678	-0.054786	0.993807	0.064371	0.996049	0.061172	-0.993232	0.069886	-0.092770
00723														9.909392	0.126224	-0.766479	-0.096866	-0.054813	0.993787	0.064391	0.996046	0.061214	-0.993212	0.069920	-0.092954
00724														9.794559	0.320070	-0.918251	-0.096987	-0.055036	0.993763	0.064153	0.996048	0.061423	-0.993216	0.069710	-0.093073
00725														9.782338	0.331348	-0.987387	-0.097176	-0.055419	0.993723	0.063780	0.996049	0.061786	-0.993221	0.069384	-0.093258
00726														9.734059	0.382015	-1.028251	-0.097410	-0.055890	0.993674	0.063526	0.996037	0.062250	-0.993215	0.069188	-0.093474
00727														9.696464	0.400937	-1.074922	-0.097600	-0.056365	0.993628	0.063435	0.996012	0.062731	-0.993202	0.069154	-0.093635
00728														9.642212	0.566929	-1.047020	-0.097739	-0.056788	0.993591	0.063572	0.995975	0.063178	-0.993180	0.069339	-0.093735
00729														9.609421	0.717019	-1.095103	-0.097870	-0.057201	0.993554	0.063969	0.995921	0.063638	-0.993141	0.069785	-0.093811
00730														9.571760	0.895218	-1.102955	-0.097946	-0.057575	0.993525	0.064597	0.995852	0.064078	-0.993093	0.070455	-0.093820
00731														9.571331	1.058730	-1.065225	-0.097928	-0.057869	0.993510	0.065266	0.995785	0.064435	-0.993051	0.071153	-0.093739
00732														9.603467	1.124506	-1.044387	-0.097836	-0.058053	0.993508	0.065921	0.995727	0.064675	-0.993017	0.071821	-0.093591
00733														9.620263	1.090050	-1.014956	-0.097697	-0.058138	0.993517	0.066542	0.995677	0.064808	-0.992989	0.072442	-0.093406
00734														9.642084	0.977852	-0.960366	-0.097503	-0.058178	0.993533	0.067114	0.995633	0.064887	-0.992970	0.073007	-0.093173
00735														9.618404	0.848598	-0.899559	-0.097288	-0.058165	0.993555	0.067619	0.995598	0.064906	-0.992957	0.073498	-0.092927
00736														9.663096	0.792320	-0.912119	-0.097014	-0.058098	0.993586	0.068024	0.995573	0.064856	-0.992956	0.073880	-0.092633
00737														9.716309	0.717289	-0.910133	-0.096633	-0.058014	0.993628	0.068322	0.995559	0.064771	-0.992972	0.074146	-0.092240
00738														9.744310	0.647872	-0.885153	-0.096319	-0.057940	0.993663	0.068543	0.995548	0.064694	-0.992988	0.074340	-0.091919
00739														9.709825	0.598642	-0.882626	-0.096075	-0.057884	0.993690	0.068703	0.995541	0.064634	-0.993000	0.074479	-0.091670
00740														9.687253	0.589856	-0.877568	-0.095854	-0.057808	0.993715	0.068858	0.995536	0.064556	-0.993011	0.074613	-0.091446
00741														9.703017	0.688299	-0.883347	-0.095615	-0.057726	0.993743	0.068981	0.995533	0.064467	-0.993025	0.074713	-0.091206
00742														9.718834	0.786494	-0.888943	-0.095352	-0.057610	0.993775	0.069072	0.995535	0.064339	-0.993044	0.074776	-0.090947
00743														9.807866	0.831901	-0.879164	-0.095182	-0.057441	0.993801	0.069076	0.995546	0.064157	-0.993060	0.074754	-0.090790
00744														9.799621	0.799326	-0.827616	-0.095061	-0.057256	0.993824	0.068900	0.995572	0.063947	-0.993084	0.074554	-0.090695
00745														9.720610	0.804907	-0.812185	-0.094947	-0.057066	0.993845	0.068516	0.995613	0.063714	-0.993122	0.074143	-0.090620
00746														9.720677	0.753862	-0.747324	-0.094840	-0.056890	0.993866	0.068092	0.995657	0.063491	-0.993161	0.073695	-0.090554
00747														9.787933	0.654892	-0.700233	-0.094706	-0.056746	0.993887	0.067453	0.995714	0.063278	-0.993217	0.073034	-0.090472
00748														9.813150	0.598365	-0.658370	-0.094652	-0.056609	0.993900	0.066681	0.995779	0.063067	-0.993275	0.072244	-0.090477
00749														9.828717	0.487729	-0.639830	-0.094653	-0.056529	0.993904	0.065873	0.995843	0.062913	-0.993328	0.071427	-0.090536
00750														9.834809	0.371812	-0.708861	-0.094686	-0.056488	0.993903	0.064921	0.995913	0.062787	-0.993388	0.070470	-0.090632
00751														9.759375	0.326557	-0.807817	-0.094702	-0.056486	0.993902	0.063841	0.995989	0.062688	-0.993457	0.069388	-0.090716
00752														9.712816	0.334126	-0.940641	-0.094726	-0.056531	0.993897	0.062727	0.996064	0.062633	-0.993525	0.068277	-0.090807
00753														9.678077	0.333771	-1.006028	-0.094771	-0.056612	0.993888	0.061734	0.996126	0.062626	-0.993583	0.067292	-0.090909
00754														9.643492	0.382191	-1.135965	-0.094748	-0.056708	0.993885	0.061043	0.996167	0.062658	-0.993628	0.066606	-0.090923
00755														9.610143	0.503700	-1.256938	-0.094678	-0.056844	0.993884	0.060605	0.996188	0.062749	-0.993662	0.066175	-0.090872
00756														9.617433	0.621754	-1.279011	-0.094536	-0.056961	0.993891	0.060451	0.996191	0.062842	-0.993684	0.066022	-0.090732
00757														9.646413	0.675277	-1.311895	-0.094368	-0.057050	0.993901	0.060506	0.996182	0.062926	-0.993697	0.066075	-0.090555
00758														9.614003	0.724368	-1.228117	-0.094139	-0.057058	0.993923	0.060739	0.996167	0.062940	-0.993704	0.066295	-0.090313
00759														9.649903	0.749454	-1.087770	-0.093839	-0.057092	0.993949	0.061137	0.996140	0.062990	-0.993708	0.066677	-0.089987
00760														9.630661	0.703840	-0.962982	-0.093469	-0.057157	0.993980	0.061600	0.996106	0.063072	-0.993715	0.067124	-0.089585
00761														9.668032	0.690498	-0.914478	-0.093094	-0.057163	0.994015	0.061972	0.996082	0.063086	-0.993727	0.067474	-0.089186
00762														9.675199	0.710902	-0.803250	-0.092608	-0.057160	0.994061	0.062236	0.996066	0.063073	-0.993756	0.067708	-0.088686
00763														9.766545	0.694865	-0.746042	-0.092195	-0.057100	0.994102	0.062505	0.996054	0.063009	-0.993777	0.067946	-0.088263
00764														9.808832	0.652119	-0.737129	-0.091861	-0.057046	0.994136	0.062750	0.996042	0.062953	-0.993793	0.068165	-0.087918
00765														9.768436	0.607231	-0.767882	-0.091594	-0.057033	0.994162	0.062882	0.996035	0.062934	-0.993809	0.068279	-0.087645
00766														9.749148	0.609222	-0.708761	-0.091285	-0.057066	0.994188	0.062831	0.996038	0.062941	-0.993841	0.068211	-0.087338
00767														9.767702	0.534706	-0.770985	-0.090979	-0.057107	0.994214	0.062592	0.996053	0.062940	-0.993884	0.067956	-0.087045
00768														9.755915	0.494418	-0.771228	-0.090705	-0.057161	0.994236	0.062266	0.996073	0.062947	-0.993929	0.067617	-0.086790
00769														9.773093	0.506999	-0.805638	-0.090435	-0.057246	0.994256	0.062059	0.996082	0.062996	-0.993967	0.067400	-0.086529
00770														9.810545	0.541989	-0.823536	-0.090230	-0.057294	0.994272	0.061962	0.996087	0.063022	-0.993992	0.067294	-0.086327
00771														9.795508	0.699615	-0.906981	-0.090126	-0.057299	0.994281	0.061865	0.996094	0.063011	-0.994007	0.067190	-0.086229
00772														9.726816	0.834517	-0.861360	-0.090083	-0.057258	0.994287	0.061702	0.996107	0.062953	-0.994021	0.067021	-0.086199
00773														9.644329	0.831431	-0.900399	-0.090020	-0.057200	0.994296	0.061354	0.996135	0.062861	-0.994048	0.066663	-0.086163
00774														9.680246	0.743785	-0.863282	-0.089866	-0.057111	0.994315	0.060985	0.996166	0.062729	-0.994085	0.066275	-0.086039
00775														9.696354	0.681818	-0.907236	-0.089694	-0.056979	0.994338	0.060837	0.996185	0.062572	-0.994110	0.066105	-0.085886
00776														9.727685	0.670366	-0.894990	-0.089558	-0.056822	0.994359	0.060749	0.996201	0.062399	-0.994127	0.065995	-0.085766
00777														9.690496	0.634393	-0.874542	-0.089524	-0.056669	0.994371	0.060684	0.996215	0.062237	-0.994134	0.065915	-0.085746
00778														9.693171	0.618396	-0.893966	-0.089430	-0.056435	0.994393	0.060797	0.996222	0.062007	-0.994136	0.066002	-0.085661
00779														9.701689	0.598051	-0.878954	-0.089280	-0.056174	0.994421	0.061034	0.996223	0.061755	-0.994135	0.066207	-0.085515
00780														9.741308	0.567997	-0.852597	-0.089150	-0.056003	0.994443	0.061069	0.996232	0.061578	-0.994144	0.066219	-0.085394
00781														9.761770	0.588697	-0.835037	-0.089048	-0.055829	0.994461	0.061063	0.996244	0.061397	-0.994154	0.066192	-0.085304
00782														9.761940	0.586834	-0.834359	-0.088949	-0.055597	0.994483	0.061262	0.996245	0.061175	-0.994150	0.066366	-0.085209
00783														9.769159	0.494064	-0.827795	-0.088853	-0.055409	0.994502	0.061376	0.996250	0.060990	-0.994152	0.066458	-0.085119
00784														9.730597	0.545207	-0.779354	-0.088781	-0.055286	0.994516	0.061364	0.996258	0.060861	-0.994159	0.066430	-0.085057
00785														9.757300	0.610713	-0.793337	-0.088702	-0.055150	0.994530	0.061392	0.996265	0.060722	-0.994164	0.066442	-0.084985
00786														9.759925	0.595238	-0.812774	-0.088659	-0.055015	0.994542	0.061310	0.996279	0.060576	-0.994173	0.066346	-0.084957
00787														9.726384	0.618335	-0.804108	-0.088589	-0.054936	0.994552	0.061082	0.996299	0.060473	-0.994194	0.066107	-0.084906
00788														9.749295	0.625606	-0.806778	-0.088509	-0.054876	0.994563	0.060718	0.996327	0.060376	-0.994223	0.065731	-0.084852
00789														9.748097	0.551896	-0.814796	-0.088462	-0.054788	0.994572	0.060383	0.996355	0.060257	-0.994248	0.065386	-0.084831
00790														9.761447	0.504410	-0.840080	-0.088434	-0.054718	0.994578	0.060134	0.996376	0.060163	-0.994265	0.065129	-0.084823
00791														9.715807	0.487464	-0.834242	-0.088395	-0.054661	0.994585	0.059956	0.996391	0.060089	-0.994279	0.064943	-0.084799
00792														9.710789	0.515493	-0.794856	-0.088361	-0.054629	0.994589	0.059873	0.996398	0.060048	-0.994287	0.064855	-0.084772
00793														9.683531	0.583518	-0.817595	-0.088321	-0.054548	0.994597	0.059866	0.996404	0.059963	-0.994291	0.064838	-0.084738
00794														9.707718	0.663852	-0.812111	-0.088221	-0.054506	0.994609	0.059787	0.996412	0.059908	-0.994305	0.064750	-0.084646
00795														9.716050	0.645290	-0.797395	-0.088140	-0.054454	0.994619	0.059684	0.996422	0.059842	-0.994318	0.064637	-0.084574
00796														9.741486	0.638678	-0.819468	-0.088046	-0.054410	0.994629	0.059636	0.996428	0.059787	-0.994330	0.064580	-0.084487
00797														9.706671	0.589653	-0.818379	-0.087939	-0.054356	0.994642	0.059588	0.996435	0.059723	-0.994342	0.064520	-0.084387
00798														9.734649	0.568775	-0.859938	-0.087841	-0.054314	0.994653	0.059505	0.996443	0.059667	-0.994356	0.064428	-0.084296
00799														9.711885	0.560321	-0.856360	-0.087748	-0.054290	0.994662	0.059405	0.996451	0.059629	-0.994370	0.064320	-0.084212
00800														9.720214	0.541928	-0.841435	-0.087627	-0.054257	0.994675	0.059311	0.996460	0.059579	-0.994386	0.064215	-0.084098
00801														9.734904	0.567805	-0.857688	-0.087509	-0.054232	0.994686	0.059265	0.996465	0.059543	-0.994399	0.064161	-0.083985
00802														9.743232	0.549574	-0.842628	-0.087399	-0.054217	0.994697	0.059306	0.996464	0.059524	-0.994406	0.064194	-0.083874
00803														9.738239	0.578309	-0.802334	-0.087261	-0.054259	0.994707	0.059320	0.996461	0.059558	-0.994418	0.064203	-0.083734
00804														9.718019	0.556258	-0.817790	-0.087100	-0.054276	0.994720	0.059337	0.996459	0.059567	-0.994431	0.064212	-0.083571
00805														9.740969	0.564720	-0.819184	-0.086901	-0.054331	0.994734	0.059309	0.996458	0.059607	-0.994450	0.064176	-0.083371
00806														9.720805	0.542855	-0.833973	-0.086663	-0.054394	0.994752	0.059245	0.996460	0.059649	-0.994475	0.064104	-0.083133
00807														9.734873	0.521778	-0.783662	-0.086394	-0.054513	0.994769	0.059145	0.996460	0.059742	-0.994504	0.063997	-0.082864
00808														9.732444	0.537280	-0.761589	-0.086121	-0.054672	0.994783	0.059008	0.996460	0.059873	-0.994536	0.063856	-0.082590
00809														9.726914	0.542411	-0.792754	-0.085802	-0.054824	0.994803	0.058882	0.996461	0.059994	-0.994571	0.063723	-0.082270
00810														9.718845	0.561982	-0.803939	-0.085457	-0.055024	0.994821	0.058710	0.996461	0.060158	-0.994611	0.063547	-0.081924
00811														9.713356	0.567545	-0.834646	-0.085112	-0.055245	0.994839	0.058489	0.996463	0.060339	-0.994653	0.063323	-0.081580
00812														9.764783	0.581769	-0.804099	-0.084894	-0.055428	0.994847	0.058220	0.996470	0.060486	-0.994688	0.063055	-0.081367
00813														9.816433	0.618914	-0.912884	-0.084751	-0.055602	0.994850	0.057985	0.996474	0.060632	-0.994714	0.062825	-0.081228
00814														9.779378	0.610971	-0.819146	-0.084720	-0.055744	0.994844	0.057850	0.996474	0.060762	-0.994724	0.062700	-0.081196
00815														9.713416	0.573369	-0.829958	-0.084687	-0.055826	0.994843	0.057767	0.996475	0.060835	-0.994732	0.062621	-0.081163
00816														9.725385	0.614851	-0.827059	-0.084579	-0.055952	0.994845	0.057653	0.996475	0.060945	-0.994747	0.062511	-0.081055
00817														9.698449	0.709248	-0.776549	-0.084512	-0.056047	0.994845	0.057610	0.996472	0.061033	-0.994756	0.062471	-0.080985
00818														9.701064	0.695708	-0.795428	-0.084379	-0.056113	0.994853	0.057485	0.996476	0.061080	-0.994774	0.062343	-0.080856
00819														9.713074	0.736638	-0.792217	-0.084275	-0.056165	0.994858	0.057168	0.996493	0.061100	-0.994801	0.062023	-0.080769
00820														9.721357	0.718857	-0.777159	-0.084125	-0.056203	0.994869	0.056842	0.996512	0.061103	-0.994833	0.061690	-0.080637
00821														9.718433	0.708336	-0.829675	-0.083988	-0.056246	0.994878	0.056494	0.996531	0.061108	-0.994864	0.061338	-0.080519
00822														9.734989	0.672180	-0.800192	-0.083843	-0.056223	0.994892	0.056140	0.996555	0.061048	-0.994896	0.060971	-0.080398
00823														9.737721	0.657231	-0.818998	-0.083731	-0.056173	0.994904	0.055817	0.996578	0.060965	-0.994924	0.060637	-0.080309
00824														9.725856	0.615945	-0.820683	-0.083609	-0.056105	0.994918	0.055500	0.996602	0.060864	-0.994952	0.060307	-0.080211
00825														9.694909	0.624892	-0.831400	-0.083491	-0.056033	0.994932	0.055194	0.996625	0.060760	-0.994979	0.059987	-0.080116
00826														9.726117	0.614085	-0.818985	-0.083308	-0.055955	0.994952	0.054878	0.996650	0.060646	-0.995012	0.059653	-0.079958
00827														9.716928	0.558379	-0.839590	-0.083142	-0.055915	0.994968	0.054563	0.996672	0.060570	-0.995043	0.059324	-0.079814
00828														9.757164	0.577358	-0.878188	-0.082990	-0.055836	0.994985	0.054228	0.996697	0.060455	-0.995074	0.058973	-0.079688
00829														9.736277	0.506416	-0.828271	-0.082838	-0.055801	0.995000	0.053912	0.996718	0.060386	-0.995104	0.058644	-0.079558
00830														9.716204	0.483224	-0.843816	-0.082689	-0.055744	0.995015	0.053664	0.996737	0.060300	-0.995129	0.058383	-0.079428
00831														9.736517	0.505261	-0.826148	-0.082552	-0.055727	0.995028	0.053502	0.996748	0.060262	-0.995150	0.058211	-0.079302
00832														9.713773	0.496764	-0.822345	-0.082445	-0.055675	0.995039	0.053454	0.996754	0.060200	-0.995161	0.058152	-0.079202
00833														9.754254	0.541668	-0.788142	-0.082300	-0.055684	0.995051	0.053433	0.996755	0.060199	-0.995174	0.058123	-0.079057
00834														9.737921	0.577583	-0.815892	-0.082196	-0.055667	0.995060	0.053506	0.996752	0.060181	-0.995179	0.058188	-0.078950
00835														9.751744	0.556295	-0.766744	-0.082081	-0.055698	0.995068	0.053534	0.996749	0.060208	-0.995187	0.058211	-0.078832
00836														9.738267	0.603395	-0.741472	-0.082027	-0.055708	0.995072	0.053570	0.996747	0.060217	-0.995189	0.058245	-0.078776
00837														9.734500	0.545227	-0.728964	-0.081966	-0.055730	0.995076	0.053590	0.996744	0.060237	-0.995193	0.058263	-0.078712
00838														9.750264	0.644446	-0.738571	-0.081918	-0.055749	0.995079	0.053572	0.996745	0.060252	-0.995198	0.058244	-0.078664
00839														9.738272	0.604277	-0.740691	-0.081895	-0.055779	0.995079	0.053535	0.996745	0.060278	-0.995202	0.058208	-0.078643
00840														9.769296	0.594783	-0.729233	-0.081873	-0.055799	0.995080	0.053461	0.996748	0.060291	-0.995208	0.058134	-0.078624
00841														9.724458	0.626228	-0.789294	-0.081896	-0.055811	0.995077	0.053330	0.996755	0.060294	-0.995213	0.058006	-0.078654
00842														9.717996	0.582404	-0.757949	-0.081881	-0.055828	0.995077	0.053188	0.996762	0.060300	-0.995222	0.057864	-0.078647
00843														9.735252	0.594270	-0.794948	-0.081873	-0.055865	0.995076	0.053030	0.996769	0.060323	-0.995231	0.057707	-0.078646
00844														9.729647	0.598026	-0.829267	-0.081904	-0.055887	0.995072	0.052865	0.996777	0.060334	-0.995237	0.057546	-0.078686
00845														9.743360	0.576858	-0.781421	-0.081905	-0.055908	0.995071	0.052721	0.996784	0.060344	-0.995245	0.057403	-0.078694
00846														9.768793	0.570787	-0.804396	-0.081964	-0.055931	0.995065	0.052640	0.996788	0.060363	-0.995244	0.057327	-0.078756
00847														9.714822	0.572722	-0.813784	-0.082020	-0.055940	0.995059	0.052625	0.996788	0.060375	-0.995240	0.057317	-0.078813
00848														9.722944	0.555056	-0.800332	-0.082116	-0.055947	0.995051	0.052642	0.996786	0.060389	-0.995231	0.057341	-0.078907
00849														9.743030	0.577966	-0.784715	-0.082173	-0.055968	0.995045	0.052663	0.996783	0.060415	-0.995226	0.057366	-0.078961
00850														9.711897	0.588107	-0.796907	-0.082221	-0.055984	0.995040	0.052712	0.996779	0.060437	-0.995219	0.057420	-0.079005
00851														9.731986	0.611060	-0.781224	-0.082314	-0.056002	0.995032	0.052745	0.996776	0.060463	-0.995210	0.057460	-0.079094
00852														9.777501	0.627766	-0.788631	-0.082494	-0.056034	0.995015	0.052717	0.996775	0.060503	-0.995196	0.057446	-0.079274
00853														9.777302	0.628172	-0.790766	-0.082702	-0.056041	0.994997	0.052699	0.996775	0.060521	-0.995180	0.057441	-0.079482
00854														9.779728	0.613871	-0.812775	-0.082962	-0.056017	0.994977	0.052705	0.996775	0.060512	-0.995158	0.057461	-0.079742
00855														9.759289	0.591342	-0.832185	-0.083246	-0.055992	0.994955	0.052778	0.996771	0.060510	-0.995130	0.057548	-0.080022
00856														9.713378	0.575270	-0.829082	-0.083501	-0.055981	0.994934	0.052925	0.996763	0.060526	-0.995101	0.057711	-0.080268
00857														9.715757	0.561077	-0.851254	-0.083771	-0.055962	0.994912	0.053154	0.996749	0.060541	-0.995066	0.057955	-0.080524
00858														9.737657	0.522012	-0.791097	-0.083999	-0.055926	0.994895	0.053394	0.996737	0.060537	-0.995034	0.058206	-0.080739
00859														9.763312	0.541201	-0.743078	-0.084232	-0.055886	0.994878	0.053541	0.996730	0.060523	-0.995007	0.058365	-0.080965
00860														9.721167	0.583484	-0.751816	-0.084468	-0.055870	0.994859	0.053782	0.996716	0.060540	-0.994974	0.058620	-0.081186
00861														9.707041	0.605201	-0.802488	-0.084710	-0.055861	0.994839	0.054085	0.996698	0.060571	-0.994937	0.058937	-0.081409
00862														9.681451	0.611771	-0.781792	-0.084814	-0.055841	0.994831	0.054204	0.996691	0.060566	-0.994921	0.059061	-0.081507
00863														9.687205	0.630427	-0.887196	-0.084823	-0.055858	0.994829	0.054111	0.996696	0.060577	-0.994926	0.058969	-0.081520
00864														9.751936	0.596843	-0.884180	-0.084817	-0.055918	0.994826	0.054048	0.996696	0.060631	-0.994930	0.058911	-0.081515
00865														9.770989	0.547270	-0.875409	-0.084879	-0.055985	0.994817	0.054003	0.996694	0.060698	-0.994927	0.058875	-0.081575
00866														9.710659	0.505601	-0.853158	-0.085006	-0.056015	0.994805	0.054063	0.996688	0.060740	-0.994913	0.058945	-0.081696
00867														9.733812	0.539970	-0.784518	-0.085111	-0.056074	0.994792	0.054303	0.996670	0.060826	-0.994891	0.059197	-0.081782
00868														9.727994	0.544360	-0.819436	-0.085210	-0.056127	0.994781	0.054589	0.996650	0.060908	-0.994866	0.059494	-0.081861
00869														9.728901	0.618355	-0.813251	-0.085329	-0.056215	0.994766	0.054898	0.996625	0.061030	-0.994839	0.059818	-0.081955
00870														9.729225	0.644865	-0.741657	-0.085473	-0.056260	0.994751	0.055134	0.996608	0.061103	-0.994814	0.060067	-0.082081
00871														9.751356	0.628584	-0.818997	-0.085614	-0.056341	0.994734	0.055336	0.996590	0.061208	-0.994790	0.060285	-0.082204
00872														9.722645	0.625001	-0.851313	-0.085755	-0.056411	0.994718	0.055504	0.996575	0.061301	-0.994769	0.060468	-0.082330
00873														9.764430	0.584008	-0.846767	-0.085936	-0.056499	0.994697	0.055650	0.996560	0.061413	-0.994745	0.060632	-0.082496
00874														9.740875	0.529703	-0.780194	-0.086153	-0.056609	0.994672	0.055756	0.996546	0.061545	-0.994721	0.060761	-0.082700
00875														9.715715	0.584738	-0.825260	-0.086331	-0.056686	0.994653	0.055970	0.996527	0.061651	-0.994693	0.060993	-0.082859
00876														9.704607	0.618393	-0.821643	-0.086464	-0.056794	0.994635	0.056197	0.996506	0.061786	-0.994669	0.061238	-0.082971
00877														9.738118	0.595687	-0.831060	-0.086578	-0.056909	0.994618	0.056423	0.996485	0.061927	-0.994646	0.061481	-0.083062
00878														9.743109	0.568170	-0.871198	-0.086678	-0.056996	0.994605	0.056576	0.996469	0.062034	-0.994629	0.061648	-0.083147
00879														9.759576	0.533796	-0.843648	-0.086794	-0.057146	0.994586	0.056683	0.996453	0.062200	-0.994612	0.061775	-0.083247
00880														9.764492	0.506979	-0.884286	-0.086991	-0.057347	0.994557	0.056784	0.996433	0.062422	-0.994589	0.061905	-0.083424
00881														9.747127	0.497557	-0.849676	-0.087262	-0.057515	0.994524	0.057095	0.996402	0.062633	-0.994548	0.062248	-0.083664
00882														9.777934	0.490280	-0.840823	-0.087504	-0.057731	0.994490	0.057444	0.996366	0.062895	-0.994507	0.062631	-0.083869
00883														9.763126	0.467008	-0.826109	-0.087829	-0.057958	0.994448	0.057958	0.996317	0.063186	-0.994448	0.063186	-0.084147
00884														9.786384	0.551176	-0.825168	-0.088251	-0.058193	0.994397	0.058579	0.996261	0.063501	-0.994374	0.063854	-0.084512
00885														9.769751	0.615349	-0.785247	-0.088796	-0.058388	0.994337	0.059250	0.996203	0.063788	-0.994286	0.064578	-0.084999
00886														9.744701	0.697030	-0.760287	-0.089372	-0.058535	0.994277	0.059878	0.996150	0.064028	-0.994197	0.065257	-0.085523
00887														9.668268	0.765682	-0.762607	-0.089838	-0.058727	0.994223	0.060336	0.996106	0.064290	-0.994127	0.065763	-0.085945
00888														9.625617	0.810404	-0.772063	-0.090147	-0.058964	0.994181	0.060504	0.996078	0.064563	-0.994089	0.065972	-0.086226
00889														9.672487	0.790312	-0.873294	-0.090352	-0.059256	0.994146	0.060454	0.996061	0.064864	-0.994073	0.065960	-0.086414
00890														9.707542	0.682039	-0.910929	-0.090549	-0.059540	0.994111	0.060319	0.996051	0.065150	-0.994064	0.065863	-0.086600
00891														9.697171	0.556813	-0.942099	-0.090688	-0.059753	0.994085	0.060169	0.996046	0.065360	-0.994060	0.065740	-0.086734
00892														9.707862	0.526985	-0.949096	-0.090868	-0.060021	0.994053	0.060101	0.996032	0.065634	-0.994048	0.065708	-0.086900
00893														9.709289	0.490110	-1.043457	-0.091056	-0.060222	0.994023	0.060392	0.995999	0.065874	-0.994013	0.066029	-0.087055
00894														9.706430	0.507131	-1.025494	-0.091227	-0.060430	0.993995	0.060930	0.995948	0.066141	-0.993964	0.066598	-0.087175
00895														9.703580	0.524539	-1.007217	-0.091374	-0.060681	0.993966	0.061557	0.995889	0.066458	-0.993912	0.067258	-0.087263
00896														9.709209	0.524130	-0.974552	-0.091528	-0.060895	0.993939	0.062353	0.995819	0.066752	-0.993848	0.068085	-0.087349
00897														9.729149	0.549582	-0.959093	-0.091668	-0.061041	0.993917	0.063335	0.995741	0.066994	-0.993773	0.069091	-0.087412
00898														9.755739	0.644022	-0.901647	-0.091775	-0.061188	0.993898	0.064543	0.995646	0.067256	-0.993686	0.070322	-0.087426
00899														9.703037	0.745555	-0.829270	-0.091924	-0.061294	0.993878	0.065712	0.995555	0.067475	-0.993596	0.071512	-0.087487
00900														9.652038	0.807731	-0.849516	-0.092026	-0.061421	0.993860	0.066709	0.995473	0.067697	-0.993520	0.072530	-0.087512
00901														9.686298	0.858945	-0.849958	-0.092015	-0.061584	0.993851	0.067490	0.995405	0.067929	-0.993468	0.073326	-0.087436
00902														9.697222	0.828796	-0.854897	-0.091989	-0.061709	0.993846	0.068043	0.995355	0.068101	-0.993433	0.073888	-0.087363
00903														9.730899	0.806551	-0.863332	-0.092029	-0.061805	0.993836	0.068519	0.995313	0.068242	-0.993396	0.074377	-0.087363
00904														9.678739	0.722185	-0.899148	-0.092034	-0.061859	0.993833	0.068959	0.995276	0.068334	-0.993365	0.074823	-0.087334
00905														9.675559	0.664531	-0.886941	-0.091918	-0.061902	0.993841	0.069367	0.995243	0.068405	-0.993347	0.075227	-0.087187
00906														9.672222	0.655344	-0.939056	-0.091769	-0.062021	0.993847	0.069731	0.995208	0.068545	-0.993336	0.075593	-0.087005
00907														9.748993	0.663683	-0.932715	-0.091651	-0.062101	0.993853	0.070108	0.995174	0.068649	-0.993320	0.075969	-0.086855
00908														9.726277	0.656671	-0.928468	-0.091553	-0.062197	0.993856	0.070657	0.995126	0.068785	-0.993290	0.076520	-0.086713
00909														9.729651	0.668580	-0.873699	-0.091437	-0.062323	0.993859	0.071174	0.995078	0.068948	-0.993264	0.077042	-0.086551
00910														9.715988	0.716635	-0.847051	-0.091336	-0.062445	0.993860	0.071655	0.995033	0.069104	-0.993239	0.077526	-0.086408
00911														9.727613	0.758700	-0.843407	-0.091269	-0.062539	0.993861	0.072077	0.994994	0.069230	-0.993214	0.077953	-0.086304
00912														9.739450	0.752218	-0.774826	-0.091159	-0.062642	0.993864	0.072434	0.994959	0.069355	-0.993199	0.078312	-0.086162
00913														9.722435	0.789625	-0.801607	-0.091016	-0.062746	0.993871	0.072695	0.994932	0.069470	-0.993193	0.078572	-0.085993
00914														9.716528	0.794781	-0.834017	-0.090871	-0.062866	0.993876	0.072726	0.994922	0.069582	-0.993204	0.078604	-0.085838
00915														9.699007	0.759368	-0.869032	-0.090690	-0.062999	0.993885	0.072684	0.994917	0.069697	-0.993223	0.078560	-0.085650
00916														9.707071	0.669728	-0.861586	-0.090478	-0.063123	0.993896	0.072615	0.994915	0.069798	-0.993248	0.078487	-0.085434
00917														9.718262	0.638717	-0.865505	-0.090297	-0.063257	0.993904	0.072573	0.994910	0.069914	-0.993267	0.078443	-0.085246
00918														9.706561	0.647574	-0.931256	-0.090076	-0.063336	0.993919	0.072673	0.994897	0.069984	-0.993280	0.078535	-0.085014
00919														9.712427	0.692851	-0.960274	-0.089848	-0.063405	0.993935	0.072823	0.994882	0.070048	-0.993290	0.078676	-0.084770
00920														9.732846	0.667905	-0.876483	-0.089627	-0.063509	0.993948	0.072985	0.994863	0.070149	-0.993298	0.078831	-0.084532
00921														9.741289	0.699081	-0.925654	-0.089500	-0.063535	0.993958	0.073256	0.994840	0.070188	-0.993289	0.079095	-0.084384
00922														9.702412	0.703273	-0.811152	-0.089322	-0.063574	0.993972	0.073531	0.994817	0.070235	-0.993285	0.079361	-0.084184
00923														9.699441	0.645143	-0.797887	-0.089101	-0.063604	0.993990	0.073746	0.994799	0.070266	-0.993289	0.079563	-0.083947
00924														9.730668	0.684618	-0.849619	-0.088890	-0.063691	0.994003	0.073931	0.994779	0.070352	-0.993294	0.079741	-0.083717
00925														9.728127	0.699659	-0.827953	-0.088710	-0.063751	0.994015	0.074281	0.994747	0.070427	-0.993284	0.080084	-0.083508
00926														9.753615	0.694747	-0.848725	-0.088509	-0.063799	0.994030	0.074664	0.994714	0.070491	-0.993273	0.080457	-0.083278
00927														9.722493	0.705181	-0.857946	-0.088332	-0.063858	0.994042	0.074910	0.994691	0.070557	-0.993270	0.080696	-0.083079
00928														9.725752	0.716175	-0.802844	-0.088194	-0.063927	0.994050	0.075198	0.994664	0.070638	-0.993261	0.080980	-0.082916
00929														9.714254	0.676445	-0.803891	-0.087983	-0.063989	0.994065	0.075449	0.994640	0.070704	-0.993261	0.081222	-0.082683
00930														9.745572	0.667606	-0.790977	-0.087815	-0.064071	0.994074	0.075574	0.994625	0.070783	-0.993266	0.081342	-0.082501
00931														9.745629	0.668466	-0.789552	-0.087680	-0.064137	0.994082	0.075780	0.994604	0.070854	-0.993262	0.081544	-0.082346
00932														9.763051	0.706000	-0.751736	-0.087561	-0.064222	0.994087	0.076014	0.994579	0.070949	-0.993255	0.081777	-0.082205
00933														9.709118	0.708319	-0.758620	-0.087409	-0.064319	0.994094	0.076190	0.994559	0.071048	-0.993255	0.081951	-0.082033
00934														9.734548	0.703698	-0.780073	-0.087298	-0.064412	0.994098	0.076271	0.994546	0.071139	-0.993258	0.082031	-0.081909
00935														9.754136	0.703130	-0.835727	-0.087222	-0.064525	0.994097	0.076316	0.994535	0.071249	-0.993261	0.082080	-0.081821
00936														9.728703	0.709941	-0.812285	-0.087119	-0.064627	0.994099	0.076360	0.994524	0.071346	-0.993267	0.082125	-0.081707
00937														9.728685	0.711191	-0.811411	-0.087026	-0.064758	0.994099	0.076462	0.994507	0.071478	-0.993267	0.082231	-0.081597
00938														9.728646	0.712470	-0.810753	-0.086966	-0.064865	0.994097	0.076479	0.994498	0.071581	-0.993271	0.082253	-0.081527
00939														9.725915	0.727765	-0.790345	-0.086870	-0.064986	0.994098	0.076528	0.994486	0.071699	-0.993276	0.082305	-0.081418
00940														9.740102	0.755476	-0.806665	-0.086815	-0.065090	0.994096	0.076579	0.994475	0.071802	-0.993277	0.082361	-0.081351
00941														9.737025	0.697991	-0.795025	-0.086763	-0.065204	0.994093	0.076570	0.994468	0.071911	-0.993282	0.082357	-0.081291
00942														9.722738	0.672725	-0.777791	-0.086731	-0.065323	0.994088	0.076577	0.994459	0.072029	-0.993284	0.082371	-0.081248
00943														9.731171	0.656002	-0.763504	-0.086691	-0.065456	0.994083	0.076584	0.994449	0.072159	-0.993287	0.082387	-0.081197
00944														9.694072	0.670907	-0.808203	-0.086662	-0.065562	0.994078	0.076690	0.994432	0.072271	-0.993282	0.082499	-0.081152
00945														9.716727	0.680876	-0.810641	-0.086587	-0.065733	0.994073	0.076792	0.994412	0.072445	-0.993280	0.082610	-0.081056
00946														9.728157	0.723095	-0.807206	-0.086522	-0.065866	0.994070	0.076840	0.994399	0.072576	-0.993282	0.082663	-0.080976
00947														9.734142	0.793289	-0.764353	-0.086460	-0.065996	0.994067	0.076919	0.994383	0.072708	-0.993281	0.082749	-0.080898
00948														9.739499	0.766599	-0.803445	-0.086423	-0.066142	0.994061	0.076961	0.994369	0.072853	-0.993281	0.082800	-0.080846
00949														9.699433	0.723006	-0.836736	-0.086352	-0.066288	0.994057	0.076905	0.994363	0.072989	-0.993292	0.082751	-0.080767
00950														9.724826	0.718620	-0.858916	-0.086288	-0.066398	0.994055	0.076774	0.994366	0.073083	-0.993308	0.082623	-0.080704
00951														9.707851	0.707268	-0.821884	-0.086241	-0.066510	0.994052	0.076677	0.994367	0.073184	-0.993319	0.082533	-0.080655
00952														9.744511	0.670721	-0.849724	-0.086155	-0.066640	0.994051	0.076698	0.994356	0.073308	-0.993325	0.082557	-0.080558
00953														9.744463	0.672137	-0.849157	-0.086108	-0.066776	0.994046	0.076776	0.994340	0.073446	-0.993323	0.082643	-0.080494
00954														9.704484	0.628243	-0.882299	-0.086025	-0.066869	0.994046	0.076824	0.994329	0.073536	-0.993327	0.082692	-0.080400
00955														9.693373	0.734194	-0.867454	-0.085952	-0.066956	0.994047	0.077057	0.994304	0.073636	-0.993315	0.082928	-0.080303
00956														9.727359	0.711695	-0.875054	-0.085828	-0.067054	0.994051	0.077304	0.994277	0.073744	-0.993306	0.083173	-0.080154
00957														9.682115	0.768605	-0.859586	-0.085711	-0.067136	0.994056	0.077561	0.994250	0.073837	-0.993297	0.083428	-0.080011
00958														9.682144	0.769734	-0.858239	-0.085562	-0.067234	0.994062	0.077856	0.994219	0.073946	-0.993286	0.083721	-0.079833
00959														9.690730	0.752771	-0.842571	-0.085385	-0.067318	0.994071	0.078052	0.994197	0.074031	-0.993286	0.083911	-0.079635
00960														9.685168	0.709122	-0.809688	-0.085173	-0.067395	0.994084	0.078306	0.994171	0.074110	-0.993284	0.084154	-0.079399
00961														9.690954	0.754662	-0.838285	-0.084901	-0.067484	0.994101	0.078551	0.994145	0.074196	-0.993288	0.084386	-0.079103
00962														9.710947	0.705508	-0.827054	-0.084591	-0.067579	0.994121	0.078872	0.994113	0.074290	-0.993289	0.084693	-0.078762
00963														9.696873	0.728583	-0.871874	-0.084288	-0.067670	0.994141	0.079139	0.994085	0.074376	-0.993294	0.084944	-0.078434
00964														9.725516	0.734077	-0.837769	-0.083954	-0.067763	0.994163	0.079416	0.994057	0.074462	-0.993300	0.085204	-0.078074
00965														9.731419	0.779645	-0.865278	-0.083589	-0.067857	0.994187	0.079606	0.994036	0.074540	-0.993316	0.085374	-0.077689
00966														9.720273	0.739792	-0.864699	-0.083239	-0.067922	0.994212	0.079796	0.994017	0.074589	-0.993330	0.085542	-0.077321
00967														9.717663	0.681845	-0.849862	-0.082829	-0.068011	0.994240	0.080009	0.993994	0.074660	-0.993347	0.085732	-0.076890
00968														9.689616	0.702279	-0.803268	-0.082371	-0.068098	0.994272	0.080328	0.993963	0.074732	-0.993359	0.086023	-0.076403
00969														9.706957	0.715507	-0.835717	-0.081987	-0.068141	0.994301	0.080706	0.993930	0.074770	-0.993360	0.086377	-0.075989
00970														9.724287	0.752632	-0.794992	-0.081575	-0.068185	0.994332	0.081114	0.993893	0.074810	-0.993361	0.086756	-0.075546
00971														9.707616	0.789223	-0.818938	-0.081160	-0.068206	0.994365	0.081564	0.993855	0.074828	-0.993358	0.087178	-0.075098
00972														9.682376	0.795040	-0.792161	-0.080728	-0.068225	0.994398	0.081981	0.993820	0.074840	-0.993359	0.087563	-0.074636
00973														9.725261	0.753661	-0.781997	-0.080229	-0.068258	0.994437	0.082341	0.993789	0.074857	-0.993370	0.087889	-0.074110
00974														9.762379	0.740458	-0.732213	-0.079789	-0.068316	0.994468	0.082702	0.993756	0.074902	-0.993375	0.088221	-0.073641
00975														9.745536	0.801135	-0.682644	-0.079377	-0.068372	0.994497	0.083034	0.993725	0.074946	-0.993380	0.088526	-0.073201
00976														9.745558	0.825554	-0.605175	-0.078960	-0.068430	0.994526	0.083222	0.993706	0.074981	-0.993398	0.088687	-0.072768
00977														9.725964	0.876205	-0.609337	-0.078506	-0.068504	0.994557	0.083199	0.993706	0.075012	-0.993436	0.088636	-0.072312
00978														9.751803	0.871274	-0.627684	-0.078050	-0.068614	0.994585	0.082910	0.993726	0.075061	-0.993496	0.088320	-0.071872
00979														9.749432	0.789112	-0.685968	-0.077567	-0.068711	0.994617	0.082410	0.993766	0.075079	-0.993575	0.087790	-0.071421
00980														9.750054	0.693003	-0.763926	-0.077087	-0.068878	0.994642	0.081768	0.993814	0.075157	-0.993666	0.087123	-0.070978
00981														9.789939	0.593527	-0.743037	-0.076628	-0.069046	0.994666	0.081063	0.993865	0.075235	-0.993759	0.086395	-0.070561
00982														9.789758	0.546151	-0.674729	-0.076264	-0.069282	0.994678	0.080363	0.993910	0.075390	-0.993844	0.085685	-0.070232
00983														9.821081	0.465919	-0.668810	-0.075940	-0.069582	0.994682	0.079684	0.993948	0.075614	-0.993923	0.085003	-0.069936
00984														9.952447	0.232913	-0.749180	-0.075519	-0.069973	0.994686	0.079137	0.993968	0.075931	-0.993999	0.084450	-0.069526
00985														9.879377	0.069535	-0.787611	-0.075076	-0.070467	0.994685	0.078734	0.993967	0.076359	-0.994065	0.084048	-0.069075
00986														9.676493	-0.051287	-0.905612	-0.074613	-0.071030	0.994680	0.078483	0.993948	0.076865	-0.994119	0.083800	-0.068587
00987														9.599974	-0.101595	-0.842449	-0.074205	-0.071738	0.994659	0.078542	0.993891	0.077542	-0.994145	0.083877	-0.068117
00988														9.717777	0.187404	-0.718918	-0.073817	-0.072547	0.994630	0.079214	0.993773	0.078363	-0.994121	0.084573	-0.067610
00989														9.809985	0.580272	-0.702609	-0.073506	-0.073455	0.994586	0.080003	0.993635	0.079297	-0.994081	0.085398	-0.067161
00990														9.779839	0.997461	-0.752377	-0.073263	-0.074426	0.994532	0.080392	0.993526	0.080273	-0.994067	0.085834	-0.066805
00991														9.627615	1.316171	-0.811570	-0.072840	-0.075330	0.994495	0.080196	0.993472	0.081126	-0.994114	0.085664	-0.066323
00992														9.542573	1.431266	-0.957034	-0.072263	-0.076224	0.994469	0.079488	0.993464	0.081923	-0.994213	0.084969	-0.065732
00993														9.492240	1.401194	-1.053759	-0.071549	-0.077208	0.994444	0.078256	0.993492	0.082765	-0.994362	0.083743	-0.065041
00994														9.456187	1.348181	-1.101237	-0.070616	-0.078035	0.994447	0.076809	0.993550	0.083419	-0.994542	0.082273	-0.064167
00995														9.442645	1.374637	-1.141504	-0.069539	-0.078683	0.994471	0.075415	0.993617	0.083889	-0.994725	0.080831	-0.063162
00996														9.262294	1.368952	-1.368283	-0.068207	-0.079084	0.994532	0.074210	0.993690	0.084106	-0.994907	0.079541	-0.061908
00997														9.035168	1.525665	-1.689574	-0.066369	-0.079165	0.994650	0.073159	0.993778	0.083977	-0.995109	0.078341	-0.060165
00998														8.946982	1.766501	-1.895136	-0.063934	-0.078957	0.994826	0.072438	0.993868	0.083537	-0.995322	0.077404	-0.057823
00999														8.982313	1.741283	-1.913711	-0.060974	-0.078503	0.995047	0.072494	0.993921	0.082857	-0.995503	0.077187	-0.054913
01000														9.099136	1.394035	-1.832202	-0.057603	-0.077638	0.995316	0.073766	0.993915	0.081798	-0.995611	0.078132	-0.051526
01001														9.237256	1.160543	-1.613503	-0.053943	-0.076195	0.995633	0.076578	0.993832	0.080206	-0.995603	0.080570	-0.047775
01002														9.358877	1.325438	-1.046284	-0.050248	-0.074250	0.995973	0.081079	0.993638	0.078166	-0.995440	0.084680	-0.043909
01003														9.346645	1.538083	-0.537642	-0.046378	-0.071847	0.996337	0.087104	0.993320	0.075684	-0.995119	0.090295	-0.039810
01004														9.338760	1.569545	-0.414446	-0.042232	-0.069108	0.996715	0.093376	0.992966	0.072804	-0.994735	0.096144	-0.035482
01005														9.532016	1.303345	-0.108513	-0.038112	-0.066373	0.997067	0.099137	0.992618	0.069866	-0.994344	0.101509	-0.031251
01006														9.759143	0.850552	0.146363	-0.034357	-0.063707	0.997377	0.104776	0.992237	0.066988	-0.993902	0.106803	-0.027415
01007														9.782532	0.401240	0.173861	-0.030769	-0.060869	0.997671	0.110540	0.991814	0.063921	-0.993395	0.112249	-0.023788
01008														9.650842	0.048628	-0.016728	-0.026851	-0.057887	0.997962	0.116452	0.991344	0.060637	-0.992833	0.117842	-0.019877
01009														9.663483	0.063491	-0.396709	-0.022634	-0.054952	0.998232	0.122249	0.990843	0.057317	-0.992241	0.123331	-0.015709
01010														9.835256	0.097896	-0.667007	-0.018650	-0.052325	0.998456	0.128421	0.990232	0.054293	-0.991544	0.129235	-0.011748
01011														9.994735	-0.288260	-0.516327	-0.015067	-0.049732	0.998649	0.135677	0.989423	0.051319	-0.990639	0.136267	-0.008160
01012														9.967211	-0.891179	-0.358798	-0.011731	-0.047009	0.998826	0.144319	0.988356	0.048211	-0.989462	0.144715	-0.004810
01013														9.822068	-1.091751	-0.199190	-0.008555	-0.044219	0.998985	0.154317	0.986996	0.045010	-0.987984	0.154546	-0.001620
01014														9.806693	-0.703884	-0.153222	-0.005345	-0.041496	0.999124	0.165525	0.985319	0.041808	-0.986191	0.165604	0.001602
01015														9.900828	-0.246763	-0.005477	-0.002161	-0.038930	0.999240	0.177165	0.983420	0.038697	-0.984179	0.177114	0.004772
01016														10.062391	0.014488	0.191710	0.000691	-0.036622	0.999329	0.188634	0.981393	0.035835	-0.982047	0.188482	0.007586
01017														10.075190	-0.053996	0.240061	0.003395	-0.034602	0.999395	0.199646	0.979304	0.033229	-0.979862	0.199413	0.010233
01018														10.112976	-0.276708	0.406544	0.006055	-0.032788	0.999444	0.209824	0.977254	0.030789	-0.977720	0.209521	0.012797
01019														10.164268	-0.310775	0.580700	0.008649	-0.031202	0.999476	0.219374	0.975223	0.028547	-0.975602	0.219012	0.015280
01020														10.153152	-0.231372	0.681356	0.011010	-0.029869	0.999493	0.228470	0.973188	0.026567	-0.973489	0.228062	0.017539
01021														10.125707	-0.018673	0.765776	0.013129	-0.028791	0.999499	0.236937	0.971207	0.024864	-0.971436	0.236492	0.019573
01022														10.127330	0.111084	0.789808	0.015045	-0.027925	0.999497	0.244548	0.969355	0.023401	-0.969520	0.244073	0.021413
01023														10.125042	0.086164	0.948861	0.016817	-0.027325	0.999485	0.251214	0.967676	0.022229	-0.967786	0.250711	0.023138
01024														10.141007	-0.089002	1.240041	0.018366	-0.026875	0.999470	0.257346	0.966086	0.021248	-0.966145	0.256819	0.024659
01025														10.095425	-0.379155	1.351067	0.019634	-0.026638	0.999452	0.263434	0.964459	0.020531	-0.964478	0.262887	0.025954
01026														10.002703	-0.421285	1.301382	0.020632	-0.026564	0.999434	0.269335	0.962838	0.020032	-0.962826	0.268769	0.027020
01027														9.932125	-0.362145	1.207596	0.021572	-0.026671	0.999412	0.274903	0.961270	0.019719	-0.961230	0.274315	0.028068
01028														9.927467	-0.255426	1.051894	0.022440	-0.027068	0.999382	0.279855	0.959840	0.019713	-0.959780	0.279240	0.029114
01029														9.962208	-0.268553	0.907775	0.023161	-0.027766	0.999346	0.284429	0.958488	0.020039	-0.958417	0.283778	0.030097
01030														10.039763	-0.252825	0.786466	0.023655	-0.028592	0.999311	0.288992	0.957111	0.020544	-0.957039	0.288307	0.030903
01031														10.035004	-0.294951	0.647460	0.023854	-0.029417	0.999283	0.293675	0.955672	0.021123	-0.955608	0.292960	0.031435
01032														9.888247	-0.154049	0.668997	0.023797	-0.030221	0.999260	0.298690	0.954102	0.021742	-0.954053	0.297952	0.031731
01033														9.705725	0.021540	0.668169	0.023646	-0.031038	0.999238	0.304185	0.952350	0.022383	-0.952319	0.303424	0.031961
01034														9.641595	0.317219	0.613073	0.023505	-0.031992	0.999212	0.309911	0.950484	0.023142	-0.950475	0.309122	0.032256
01035														9.768592	0.571631	0.589770	0.023459	-0.033029	0.999179	0.315520	0.948617	0.023950	-0.948629	0.314699	0.032674
01036														9.875876	0.729373	0.552633	0.023339	-0.033997	0.999149	0.320727	0.946849	0.024725	-0.946884	0.319878	0.033002
01037														9.835213	0.845099	0.638239	0.022999	-0.034730	0.999132	0.325786	0.945104	0.025353	-0.945164	0.324920	0.033051
01038														9.710354	0.926736	0.585982	0.022538	-0.035314	0.999122	0.330634	0.943404	0.025886	-0.943490	0.329760	0.032938
01039														9.642320	0.976557	0.610832	0.022239	-0.035892	0.999108	0.334732	0.941944	0.026387	-0.942051	0.333847	0.032962
01040														9.728223	0.887120	0.534833	0.022171	-0.036575	0.999085	0.338037	0.940747	0.026938	-0.940872	0.337130	0.033221
01041														9.706320	0.757706	0.748207	0.022198	-0.037416	0.999053	0.341271	0.939559	0.027606	-0.939703	0.340335	0.033625
01042														9.528790	0.621003	0.615938	0.022446	-0.038159	0.999020	0.344921	0.938211	0.028087	-0.938363	0.343953	0.034221
01043														9.554820	0.497970	0.065018	0.022770	-0.038668	0.998993	0.347534	0.937238	0.028356	-0.937391	0.346538	0.034780
01044														9.883518	0.518113	0.074010	0.022978	-0.039301	0.998963	0.349190	0.936609	0.028816	-0.936770	0.348166	0.035245
01045														10.151225	0.383380	0.208034	0.022906	-0.039839	0.998944	0.351146	0.935863	0.029271	-0.936040	0.350105	0.035426
01046														10.040775	0.018294	0.192733	0.022489	-0.040123	0.998942	0.353371	0.935015	0.029600	-0.935213	0.352331	0.035206
01047														9.847253	-0.255604	0.572783	0.021888	-0.040417	0.998943	0.355852	0.934061	0.029995	-0.934286	0.354820	0.034827
01048														9.862040	-0.301595	0.958536	0.021294	-0.040786	0.998941	0.359061	0.932818	0.030433	-0.933071	0.358033	0.034508
01049														9.799549	0.047246	0.973113	0.020697	-0.041067	0.998942	0.362152	0.931610	0.030796	-0.931889	0.361131	0.034154
01050														9.755360	0.488012	0.670216	0.020136	-0.041399	0.998940	0.363858	0.930930	0.031246	-0.931237	0.362843	0.033809
01051														9.920657	0.681908	0.735451	0.019387	-0.042032	0.998928	0.364346	0.930711	0.032090	-0.931062	0.363333	0.033358
01052														10.020831	0.518910	0.838079	0.018592	-0.042791	0.998911	0.364531	0.930603	0.033080	-0.931006	0.363519	0.032900
01053														9.941432	0.182686	0.651139	0.017542	-0.043346	0.998906	0.364619	0.930537	0.033976	-0.930992	0.363624	0.032128
01054														9.926136	0.081356	0.651028	0.016035	-0.043694	0.998916	0.364880	0.930402	0.034840	-0.930916	0.363926	0.030862
01055														9.854026	0.223355	0.680752	0.014265	-0.043947	0.998932	0.365530	0.930114	0.035700	-0.930690	0.364631	0.029332
01056														9.826661	0.312983	0.683342	0.012440	-0.044136	0.998948	0.366146	0.929840	0.036523	-0.930474	0.365307	0.027727
01057														9.767990	0.349644	0.645674	0.010455	-0.044362	0.998961	0.366520	0.929656	0.037448	-0.930351	0.365748	0.025979
01058														9.803211	0.423389	0.559028	0.008452	-0.044603	0.998969	0.366753	0.929525	0.038399	-0.930280	0.366051	0.024214
01059														9.860887	0.294982	0.364011	0.006442	-0.044777	0.998976	0.366819	0.929462	0.039295	-0.930270	0.366190	0.022412
01060														9.889818	0.309476	0.269614	0.004269	-0.044919	0.998982	0.366980	0.929359	0.040220	-0.930219	0.366435	0.020451
01061														9.853174	0.292439	0.146375	0.001880	-0.044910	0.998989	0.367250	0.929214	0.041082	-0.930120	0.366802	0.018240
01062														9.785703	0.258257	0.205150	-0.000729	-0.044770	0.998997	0.367823	0.928951	0.041899	-0.929895	0.367485	0.015790
01063														9.831719	0.190011	0.293421	-0.003559	-0.044577	0.999000	0.368868	0.928499	0.042745	-0.929475	0.368651	0.013138
01064														9.813757	0.244388	0.326473	-0.006386	-0.044460	0.998991	0.370115	0.927959	0.043665	-0.928964	0.370021	0.010529
01065														9.779488	0.361923	0.256936	-0.009151	-0.044369	0.998973	0.371200	0.927481	0.044594	-0.928508	0.371227	0.007982
01066														9.809688	0.455636	0.075991	-0.011967	-0.044235	0.998949	0.371976	0.927126	0.045510	-0.928165	0.372129	0.005360
01067														9.872348	0.411469	0.208422	-0.014962	-0.043976	0.998921	0.372974	0.926682	0.046383	-0.927721	0.373266	0.002537
01068														9.899041	0.254307	0.292962	-0.018168	-0.043638	0.998882	0.374496	0.926023	0.047267	-0.927051	0.374936	-0.000482
01069														9.869454	0.270726	0.306705	-0.021503	-0.043284	0.998831	0.376279	0.925252	0.048197	-0.926257	0.376876	-0.003609
01070														9.894915	0.484249	0.495619	-0.024953	-0.042944	0.998766	0.378138	0.924441	0.049196	-0.925413	0.378899	-0.006829
01071														9.902797	0.619616	0.499512	-0.028486	-0.042588	0.998687	0.379775	0.923715	0.050223	-0.924640	0.380707	-0.010139
01072														9.792552	0.716491	0.575859	-0.032167	-0.042140	0.998594	0.380683	0.923286	0.051225	-0.924146	0.381796	-0.013658
01073														9.723898	0.770044	0.646268	-0.035825	-0.041676	0.998489	0.380999	0.923101	0.052199	-0.923881	0.382293	-0.017192
01074														9.736467	0.682247	0.490284	-0.039436	-0.041285	0.998369	0.380963	0.923057	0.053219	-0.923749	0.382441	-0.020674
01075														9.873959	0.606375	0.321779	-0.043128	-0.040969	0.998229	0.380805	0.923058	0.054337	-0.923649	0.382474	-0.024208
01076														9.877293	0.542317	0.155827	-0.047008	-0.040687	0.998066	0.380608	0.923066	0.055556	-0.923541	0.382483	-0.027905
01077														9.909984	0.392293	0.020896	-0.051130	-0.040383	0.997875	0.380361	0.923089	0.056846	-0.923424	0.382459	-0.031837
01078														9.912121	0.178143	0.031179	-0.055430	-0.040034	0.997660	0.380209	0.923070	0.058165	-0.923238	0.382543	-0.035944
01079														9.803858	0.130628	0.074730	-0.059839	-0.039741	0.997417	0.380171	0.922995	0.059584	-0.922978	0.382755	-0.040122
01080														9.749344	0.225204	0.078106	-0.064277	-0.039582	0.997147	0.380145	0.922904	0.061140	-0.922691	0.382990	-0.044274
01081														9.901583	0.393806	0.003450	-0.068819	-0.039467	0.996848	0.379776	0.922947	0.062759	-0.922515	0.382898	-0.048528
01082														9.866193	0.291361	-0.029804	-0.073524	-0.039349	0.996517	0.378966	0.923166	0.064413	-0.922485	0.382382	-0.052963
01083														9.750373	0.204847	0.127649	-0.078706	-0.039212	0.996126	0.377759	0.923534	0.066202	-0.922553	0.381506	-0.057875
01084														9.818862	0.412218	0.436818	-0.084258	-0.039291	0.995669	0.376821	0.923762	0.068342	-0.922446	0.380947	-0.063029
01085														9.796955	0.628966	0.266825	-0.089661	-0.039262	0.995198	0.376240	0.923848	0.070344	-0.922174	0.380741	-0.068061
01086														9.787249	0.949361	0.140152	-0.095142	-0.039166	0.994693	0.374782	0.924294	0.072242	-0.922218	0.379666	-0.073261
01087														9.854274	1.156149	0.288764	-0.100993	-0.039264	0.994112	0.372505	0.925045	0.074380	-0.922518	0.377824	-0.078797
01088														9.792039	0.822694	-0.066041	-0.107050	-0.039355	0.993474	0.369830	0.925942	0.076530	-0.922912	0.375609	-0.084568
01089														9.826564	0.321939	-0.225842	-0.113255	-0.039498	0.992781	0.366542	0.927067	0.078698	-0.923483	0.372808	-0.090517
01090														9.816353	0.152386	-0.347914	-0.119847	-0.039715	0.991998	0.363643	0.928003	0.081086	-0.923797	0.370451	-0.096776
01091														9.891901	0.052748	-0.750683	-0.126854	-0.039570	0.991132	0.361814	0.928514	0.083379	-0.923579	0.369183	-0.103468
01092														10.063183	-0.036483	-0.795125	-0.134556	-0.039178	0.990131	0.360609	0.928766	0.085756	-0.922960	0.368589	-0.110843
01093														10.137225	-0.166894	-0.632919	-0.143080	-0.038630	0.988957	0.360229	0.928667	0.088392	-0.921826	0.368898	-0.118958
01094														9.998827	-0.414251	-0.473053	-0.151919	-0.037952	0.987664	0.360061	0.928474	0.091061	-0.920476	0.369454	-0.127388
01095														10.018823	-0.358699	-0.207182	-0.161149	-0.037243	0.986227	0.359736	0.928324	0.093837	-0.919033	0.369903	-0.136201
01096														10.222574	-0.089476	-0.197561	-0.171156	-0.036232	0.984578	0.359395	0.928169	0.096632	-0.917355	0.370392	-0.145840
01097														10.569631	0.339720	0.214309	-0.181863	-0.035196	0.982694	0.358841	0.928064	0.099648	-0.915510	0.370753	-0.156151
01098														10.667307	0.272432	0.320372	-0.193063	-0.034672	0.980574	0.358841	0.927648	0.103452	-0.913214	0.371843	-0.166653
01099														10.259551	-0.756467	0.190038	-0.204239	-0.034754	0.978304	0.358079	0.927459	0.107704	-0.911080	0.372307	-0.176979
01100														10.090255	-1.469377	0.167857	-0.215682	-0.035434	0.975821	0.354871	0.928165	0.112140	-0.909696	0.370477	-0.187614
01101														10.495293	-1.958349	0.068918	-0.227803	-0.036913	0.973007	0.350485	0.929193	0.117307	-0.908441	0.367747	-0.198736
01102														10.714746	-2.462949	-0.595166	-0.240674	-0.039294	0.969810	0.346466	0.929876	0.123657	-0.906663	0.365768	-0.210183
01103														10.831157	-2.932728	-1.300396	-0.254304	-0.042192	0.966203	0.342749	0.930272	0.130835	-0.904352	0.364437	-0.222111
01104														10.322287	-2.337044	-2.005383	-0.268015	-0.045671	0.962332	0.338726	0.930635	0.138504	-0.901905	0.363088	-0.233955
01105														10.002306	-1.766215	-3.535998	-0.282173	-0.050063	0.958056	0.335023	0.930624	0.147303	-0.898965	0.362536	-0.245824
01106														9.801224	-0.950577	-3.390205	-0.296473	-0.054999	0.953456	0.331962	0.930156	0.156877	-0.895491	0.363022	-0.257508
01107														11.071023	0.841403	-2.857575	-0.309400	-0.060117	0.949030	0.327980	0.930014	0.165839	-0.892581	0.362573	-0.268029
01108														12.074456	2.490212	-2.215939	-0.321614	-0.065005	0.944637	0.324030	0.929850	0.174308	-0.889701	0.362151	-0.277989
01109														12.304224	3.234543	-2.087077	-0.334080	-0.069150	0.940005	0.319201	0.930073	0.181864	-0.886849	0.360807	-0.288646
01110														12.142085	2.935078	-3.247667	-0.346229	-0.073073	0.935300	0.313435	0.930664	0.188738	-0.884242	0.358502	-0.299319
01111														11.933148	1.955630	-3.229856	-0.358297	-0.076444	0.930473	0.307207	0.931487	0.194824	-0.881616	0.355652	-0.310265
01112														12.114691	0.515586	-2.906736	-0.369775	-0.079107	0.925748	0.300864	0.932490	0.199858	-0.879061	0.352427	-0.321011
01113														12.289078	-0.322277	-2.810411	-0.381547	-0.081542	0.920746	0.295940	0.932894	0.205252	-0.875695	0.350799	-0.331811
01114														12.423647	-0.890723	-2.369034	-0.394128	-0.084162	0.915194	0.292687	0.932458	0.211795	-0.871205	0.351340	-0.342875
01115														12.656425	-1.706629	-2.058065	-0.406892	-0.086694	0.909353	0.290684	0.931450	0.218868	-0.865992	0.353389	-0.353799
01116														12.878335	-2.087793	-1.798342	-0.420082	-0.088699	0.903141	0.290009	0.929903	0.226221	-0.859899	0.356950	-0.364912
01117														12.655998	-1.982280	-1.203640	-0.433908	-0.090703	0.896380	0.290388	0.927745	0.234445	-0.852877	0.362025	-0.376217
01118														11.971955	-1.710866	-0.625631	-0.447776	-0.092846	0.889312	0.291164	0.925244	0.243201	-0.845411	0.367835	-0.387269
01119														11.635602	-1.107801	0.335635	-0.461725	-0.094790	0.881944	0.291548	0.922815	0.251818	-0.837741	0.373399	-0.398451
01120														11.204852	0.363451	1.172156	-0.475858	-0.096339	0.874230	0.290884	0.920808	0.259805	-0.830027	0.377930	-0.410151
01121														10.561554	1.654752	0.967306	-0.489284	-0.097954	0.866606	0.288907	0.919362	0.267033	-0.822882	0.381023	-0.421529
01122														10.092077	2.527288	0.801728	-0.502468	-0.099915	0.858803	0.286290	0.918037	0.274309	-0.815821	0.383698	-0.432679
01123														9.739653	3.163268	0.850673	-0.515604	-0.102272	0.850701	0.284680	0.916001	0.282666	-0.808152	0.387921	-0.443179
01124														9.390407	3.853680	1.027302	-0.528280	-0.104331	0.842636	0.284459	0.913322	0.291421	-0.800002	0.393648	-0.452812
01125														9.080454	4.544005	0.566503	-0.540845	-0.105856	0.834434	0.284950	0.910328	0.300177	-0.791385	0.400122	-0.462183
01126														8.628553	4.463639	-0.142583	-0.553332	-0.107138	0.826042	0.286351	0.906785	0.309425	-0.782194	0.407753	-0.471074
01127														9.001325	2.879400	-0.806391	-0.566364	-0.109010	0.816914	0.290603	0.901135	0.321723	-0.771221	0.419610	-0.478692
01128														9.869273	1.285027	-0.664893	-0.581615	-0.111604	0.805772	0.299178	0.891771	0.339465	-0.756450	0.438507	-0.485278
01129														9.183526	1.043250	-0.790069	-0.599540	-0.113161	0.792304	0.312798	0.878086	0.362108	-0.736688	0.464930	-0.491051
01130														7.050150	2.002524	0.979103	-0.617306	-0.112418	0.778650	0.335813	0.857390	0.390015	-0.711452	0.502239	-0.491521
01131														5.230593	3.104291	1.592975	-0.632304	-0.110564	0.766791	0.366329	0.829452	0.421678	-0.682639	0.547526	-0.483963
01132														4.774576	4.213435	1.418219	-0.644183	-0.108674	0.757112	0.396260	0.799241	0.451876	-0.654222	0.591104	-0.471795
01133														5.230900	5.557507	1.598586	-0.654449	-0.105849	0.748660	0.422406	0.770046	0.478124	-0.627112	0.629147	-0.459244
01134														5.935375	6.753508	1.595924	-0.663711	-0.100825	0.741163	0.446053	0.742057	0.500387	-0.600437	0.662710	-0.447538
01135														6.463329	7.459567	1.627594	-0.671781	-0.093428	0.734834	0.468100	0.715296	0.518878	-0.574102	0.692548	-0.436789
01136														6.481376	7.442544	1.482750	-0.678160	-0.084725	0.730014	0.488083	0.690704	0.533576	-0.549431	0.718157	-0.427055
01137														6.280615	6.996464	1.296100	-0.682756	-0.076084	0.726674	0.505295	0.669211	0.544824	-0.527750	0.739167	-0.418463
01138														6.194045	6.743420	1.103329	-0.685422	-0.068101	0.724954	0.520358	0.650621	0.553100	-0.509337	0.756343	-0.410513
01139														6.262311	6.697936	0.886377	-0.686324	-0.060595	0.724768	0.534309	0.634078	0.558980	-0.493431	0.770891	-0.402806
01140														6.504494	6.633071	0.379308	-0.685558	-0.052586	0.726116	0.548469	0.618569	0.562632	-0.478739	0.783969	-0.395223
01141														6.663326	6.444002	-0.057723	-0.683507	-0.043321	0.728657	0.563469	0.603268	0.564421	-0.464027	0.796361	-0.387927
01142														6.631445	6.041524	-0.607590	-0.680287	-0.032683	0.732217	0.579529	0.587629	0.564657	-0.448727	0.808470	-0.380815
01143														6.424447	5.565553	-1.056920	-0.675879	-0.021353	0.736703	0.596334	0.571549	0.563665	-0.433097	0.820290	-0.373565
01144														6.362156	5.276823	-1.176394	-0.669880	-0.009879	0.742404	0.614186	0.554455	0.561565	-0.417177	0.832155	-0.365351
01145														6.556884	4.988165	-1.135168	-0.662105	0.001748	0.749409	0.633515	0.535516	0.558464	-0.400344	0.844523	-0.355675
01146														6.851984	4.800565	-1.246262	-0.652393	0.013724	0.757757	0.654440	0.514445	0.554124	-0.382220	0.857413	-0.344602
01147														7.069192	4.828730	-1.479513	-0.640783	0.026231	0.767274	0.676542	0.491700	0.548199	-0.362889	0.870369	-0.332819
01148														7.255795	5.191347	-1.555842	-0.627176	0.039277	0.777887	0.699544	0.467547	0.540405	-0.342474	0.883095	-0.320710
01149														7.382402	5.637967	-1.843343	-0.611824	0.052520	0.789248	0.722889	0.442172	0.530958	-0.321097	0.895391	-0.308498
01150														7.505338	5.990049	-2.009223	-0.594627	0.065525	0.801327	0.746219	0.415991	0.519719	-0.299291	0.907005	-0.296256
01151														7.617614	6.361351	-1.980236	-0.575760	0.077813	0.813907	0.769150	0.389192	0.506891	-0.277323	0.917864	-0.283931
01152														7.707089	6.630641	-2.000836	-0.555003	0.089166	0.827056	0.791619	0.362063	0.492189	-0.255560	0.927879	-0.271532
01153														7.972896	6.552291	-1.858394	-0.532482	0.099538	0.840568	0.813329	0.335212	0.475531	-0.234435	0.936870	-0.259451
01154														8.189199	6.158037	-1.945838	-0.508191	0.108938	0.854327	0.834144	0.309144	0.456765	-0.214351	0.944755	-0.247974
01155														8.325271	5.594845	-1.846799	-0.482405	0.117348	0.868052	0.853939	0.283750	0.436203	-0.195122	0.951691	-0.237091
01156														8.474386	4.972082	-1.936647	-0.455098	0.124744	0.881660	0.872816	0.258520	0.413956	-0.176288	0.957918	-0.226530
01157														8.682056	4.425213	-1.837587	-0.426455	0.130999	0.894973	0.890677	0.233198	0.390274	-0.157580	0.963565	-0.216126
01158														8.994964	3.904931	-1.482771	-0.396358	0.136032	0.907962	0.907602	0.207160	0.365163	-0.138419	0.968803	-0.205572
01159														9.265964	3.425938	-1.456511	-0.364889	0.139841	0.920489	0.923441	0.180507	0.338636	-0.118799	0.973582	-0.195000
01160														9.400961	3.259291	-1.615454	-0.331857	0.142255	0.932542	0.938090	0.153816	0.310368	-0.099288	0.977806	-0.184492
01161														9.559238	3.398763	-1.701693	-0.297477	0.143476	0.943887	0.951414	0.126868	0.280565	-0.079495	0.981488	-0.174245
01162														9.613246	3.663636	-1.781071	-0.261884	0.143403	0.954386	0.963318	0.098894	0.249475	-0.058607	0.984711	-0.164042
01163														9.673949	3.771856	-2.016005	-0.225378	0.141854	0.963889	0.973573	0.070237	0.217305	-0.036875	0.987393	-0.153935
01164														9.730214	3.570611	-2.060843	-0.188101	0.138720	0.972304	0.982033	0.041847	0.184013	-0.015162	0.989447	-0.144099
01165														9.875370	3.120128	-1.918618	-0.150482	0.134062	0.979481	0.988591	0.013895	0.149980	0.006497	0.990876	-0.134623
01166														10.045000	2.495272	-1.863389	-0.112464	0.127876	0.985393	0.993260	-0.013507	0.115115	0.028030	0.991698	-0.125495
01167														10.296115	1.960399	-1.711020	-0.074424	0.120460	0.989924	0.996009	-0.040062	0.079757	0.049266	0.991909	-0.116998
01168														10.635146	1.536874	-0.590405	-0.036640	0.112399	0.992987	0.996821	-0.066231	0.044278	0.070743	0.991453	-0.109615
01169														10.977742	1.099033	-0.144260	0.000025	0.104623	0.994512	0.995707	-0.092051	0.009658	0.092556	0.990243	-0.104176
01170														10.969007	0.747388	-1.082697	0.035820	0.096084	0.994728	0.993119	-0.114478	-0.024704	0.111501	0.988768	-0.099524
01171														10.985013	0.873167	-1.241104	0.070970	0.086535	0.993718	0.989528	-0.131641	-0.059207	0.125691	0.987513	-0.094971
01172														11.032746	0.972639	-0.792312	0.105501	0.077114	0.991425	0.984835	-0.146186	-0.093429	0.137728	0.986247	-0.091367
01173														10.813128	0.957906	-0.851082	0.138864	0.067829	0.987986	0.979094	-0.159139	-0.126689	0.148634	0.984923	-0.088510
01174														10.255920	0.873494	-1.094132	0.170763	0.058130	0.983596	0.972441	-0.170770	-0.158734	0.158741	0.983595	-0.085690
01175														10.255566	0.659987	-1.570849	0.200676	0.048499	0.978457	0.965036	-0.181703	-0.188917	0.168627	0.982157	-0.083267
01176														10.403914	0.430371	-1.592029	0.228217	0.039468	0.972810	0.957191	-0.191825	-0.216770	0.178053	0.980635	-0.081556
01177														10.248454	0.439121	-1.435239	0.253165	0.031024	0.966925	0.949356	-0.200226	-0.242141	0.186092	0.979258	-0.080143
01178														9.881258	1.062693	-0.451644	0.275997	0.023100	0.960881	0.941854	-0.205859	-0.265582	0.191671	0.978309	-0.078573
01179														9.829232	1.440619	0.665601	0.296749	0.016079	0.954820	0.934812	-0.209171	-0.287008	0.195106	0.977747	-0.077102
01180														9.715055	0.932825	0.473601	0.315017	0.009318	0.949040	0.928861	-0.208361	-0.306273	0.194889	0.978008	-0.074292
01181														9.439788	0.295546	-0.114828	0.330416	0.003241	0.943830	0.924705	-0.201427	-0.323029	0.189066	0.979498	-0.069552
01182														9.263906	0.012677	-0.184907	0.343478	-0.001414	0.939160	0.921782	-0.190977	-0.337410	0.179835	0.981593	-0.064293
01183														8.848491	-0.384298	-0.580114	0.354827	-0.004771	0.934920	0.919229	-0.180729	-0.349794	0.170636	0.983521	-0.059742
01184														7.988737	-0.971778	-2.083546	0.364752	-0.007649	0.931073	0.916906	-0.171014	-0.360607	0.161985	0.985239	-0.055364
01185														6.236290	-0.867146	-3.736613	0.372482	-0.011011	0.927974	0.915115	-0.161944	-0.369242	0.154346	0.986738	-0.050245
01186														5.623310	0.040659	-3.554216	0.377921	-0.016539	0.925690	0.913912	-0.153299	-0.375851	0.148124	0.988041	-0.042820
01187														7.426379	0.444031	-1.933150	0.381762	-0.024058	0.923947	0.913004	-0.145728	-0.381035	0.143812	0.989032	-0.033668
01188														9.788180	0.412548	-0.531156	0.384623	-0.031210	0.922546	0.912659	-0.136850	-0.385131	0.138270	0.990100	-0.024152
01189														10.420329	0.367724	0.420708	0.386411	-0.035711	0.921635	0.913151	-0.125786	-0.387728	0.129775	0.991414	-0.015995
01190														9.332430	-0.062991	0.318817	0.386932	-0.038363	0.921310	0.914178	-0.114790	-0.388717	0.120669	0.992649	-0.009345
01191														8.235123	-0.912274	-0.284068	0.385618	-0.040902	0.921751	0.915629	-0.106114	-0.387766	0.113671	0.993512	-0.003469
01192														8.049782	-1.867834	-1.319564	0.381721	-0.043197	0.923267	0.917789	-0.100436	-0.384155	0.109324	0.994005	0.001307
01193														8.380496	-2.486412	-1.854747	0.375048	-0.044038	0.925959	0.920663	-0.098952	-0.377609	0.108255	0.994117	0.003432
01194														8.449741	-2.444462	-1.598702	0.365920	-0.043661	0.929621	0.923837	-0.103570	-0.368508	0.112370	0.993663	0.002438
01195														8.090407	-1.871006	-0.709616	0.354369	-0.043239	0.934106	0.927088	-0.114282	-0.356997	0.122188	0.992507	-0.000412
01196														10.644302	-1.392614	2.606638	0.340558	-0.043753	0.939205	0.930165	-0.130043	-0.343338	0.137159	0.990543	-0.003589
01197														12.212849	-2.945766	-0.245611	0.326459	-0.045157	0.944132	0.931909	-0.151609	-0.329484	0.158018	0.987408	-0.007412
01198														11.406205	-5.657248	-2.558036	0.317707	-0.046944	0.947026	0.931062	-0.173528	-0.320953	0.179402	0.983709	-0.011424
01199														12.533692	-8.173067	-6.150033	0.316431	-0.049596	0.947318	0.928061	-0.190575	-0.319975	0.196405	0.980419	-0.014275
01200														13.254531	-8.073203	-5.960655	0.313218	-0.051984	0.948257	0.926665	-0.201766	-0.317147	0.207812	0.978053	-0.015025
01201														12.963113	-5.444010	-3.163092	0.300668	-0.051754	0.952324	0.927081	-0.218530	-0.304575	0.223875	0.974457	-0.017725
01202														13.066821	-2.727723	-2.495028	0.283122	-0.051190	0.957717	0.925978	-0.245512	-0.286861	0.249815	0.968041	-0.022109
01203														13.295428	-1.938749	-5.616855	0.268531	-0.052576	0.961835	0.923315	-0.270550	-0.272565	0.274555	0.961269	-0.024106
01204														13.345180	-0.836053	-6.937063	0.256828	-0.053144	0.964995	0.922963	-0.282681	-0.261209	0.286667	0.957741	-0.023550
01205														13.342668	-0.392620	-2.552010	0.242069	-0.050182	0.968961	0.925750	-0.287058	-0.246140	0.290500	0.956598	-0.023031
01206														13.103611	-1.820980	2.500029	0.223864	-0.045281	0.973568	0.927810	-0.295956	-0.227108	0.298417	0.954128	-0.024241
01207														11.698702	-3.616907	3.378637	0.206223	-0.040729	0.977657	0.927532	-0.310133	-0.208570	0.311699	0.949820	-0.026179
01208														10.179530	-3.384753	4.652155	0.190170	-0.035419	0.981112	0.926017	-0.325452	-0.191240	0.326078	0.944895	-0.029093
01209														9.877743	-1.579976	5.308209	0.173536	-0.029771	0.984377	0.924066	-0.340736	-0.173208	0.340569	0.939688	-0.031620
01210														9.595264	1.255805	4.786663	0.155438	-0.025096	0.987527	0.922737	-0.353234	-0.154217	0.352698	0.935198	-0.031749
01211														9.496212	4.227324	4.754029	0.136439	-0.021147	0.990423	0.922557	-0.361546	-0.134810	0.360934	0.932114	-0.029820
01212														10.161254	5.258094	3.494320	0.117398	-0.018130	0.992919	0.923542	-0.365575	-0.115870	0.365087	0.930605	-0.026174
01213														10.846289	4.538949	2.104405	0.097914	-0.015818	0.995069	0.926185	-0.364397	-0.096928	0.364134	0.931109	-0.021029
01214														10.460612	4.568075	0.601828	0.078718	-0.013220	0.996809	0.930203	-0.358615	-0.078214	0.358505	0.933392	-0.015932
01215														8.890643	4.672467	-0.582343	0.061150	-0.011023	0.998068	0.935167	-0.348888	-0.061150	0.348888	0.937100	-0.011026
01216														8.431013	3.609007	-1.439297	0.044926	-0.008558	0.998954	0.939143	-0.340546	-0.045154	0.340576	0.940189	-0.007263
01217														9.279019	1.426516	-2.190565	0.029278	-0.005173	0.999558	0.940528	-0.338451	-0.029301	0.338453	0.940970	-0.005044
01218														9.608581	-0.464014	-2.511158	0.014762	-0.002056	0.999889	0.939862	-0.341243	-0.014577	0.341235	0.939973	-0.003105
01219														9.497495	-0.720042	-1.414949	0.002334	0.000464	0.999997	0.938042	-0.346515	-0.002028	0.346513	0.938044	-0.001244
01220														9.457321	1.326659	-0.158085	-0.008655	0.002877	0.999958	0.934688	-0.355351	0.009112	0.355363	0.934728	0.000387
01221														9.282431	3.591122	-0.030575	-0.019268	0.005311	0.999800	0.929948	-0.367154	0.019872	0.367186	0.930145	0.002135
01222														8.877126	5.080624	0.071183	-0.029533	0.008014	0.999532	0.925733	-0.376956	0.030374	0.377023	0.926196	0.003714
01223														8.285361	6.296065	0.720545	-0.039054	0.009815	0.999189	0.923849	-0.380677	0.039849	0.380759	0.924656	0.005799
01224														8.561496	6.420536	0.397686	-0.047965	0.009981	0.998799	0.923950	-0.379469	0.048162	0.379494	0.925150	0.008979
01225														9.552076	4.247058	-0.092031	-0.056921	0.009687	0.998332	0.925355	-0.374882	0.056398	0.374803	0.927022	0.012375
01226														9.936998	1.633876	0.334466	-0.066487	0.009750	0.997740	0.927523	-0.367999	0.065404	0.367805	0.929775	0.015424
01227														9.603666	-0.019171	0.310417	-0.075977	0.009787	0.997062	0.928958	-0.362641	0.074347	0.362303	0.931877	0.018461
01228														9.084632	-0.666686	0.403298	-0.084325	0.009272	0.996395	0.929032	-0.360803	0.081981	0.360263	0.932596	0.021811
01229														9.119308	-0.163915	0.492688	-0.091675	0.008550	0.995752	0.927921	-0.362110	0.088539	0.361329	0.932096	0.025263
01230														9.561503	1.007506	0.273651	-0.099779	0.007599	0.994981	0.926354	-0.364300	0.095679	0.363198	0.931251	0.029310
01231														9.877411	1.824142	0.248399	-0.108517	0.007224	0.994068	0.925285	-0.364833	0.103660	0.363418	0.931045	0.032906
01232														9.843782	1.798997	0.204306	-0.117339	0.007052	0.993067	0.925335	-0.362259	0.111909	0.360536	0.932051	0.035982
01233														9.850867	0.595997	0.212610	-0.126554	0.006733	0.991937	0.926239	-0.357125	0.120596	0.355057	0.934032	0.038959
01234														10.187532	-0.955804	0.349684	-0.136359	0.006909	0.990635	0.927307	-0.350968	0.130090	0.348580	0.936362	0.041451
01235														10.179857	-1.562666	0.519863	-0.146503	0.007884	0.989179	0.927626	-0.346221	0.140146	0.343580	0.938120	0.043409
01236														9.965667	-1.110320	0.629173	-0.156638	0.009407	0.987611	0.926822	-0.344119	0.150274	0.341270	0.938879	0.045183
01237														9.802146	0.203163	0.661512	-0.166407	0.011371	0.985992	0.925226	-0.343974	0.160119	0.340976	0.938910	0.046719
01238														9.595340	1.617624	0.695452	-0.175866	0.013386	0.984323	0.923412	-0.344272	0.169665	0.341146	0.938774	0.048185
01239														9.467135	2.914330	0.703099	-0.185406	0.015289	0.982543	0.921845	-0.343589	0.179299	0.340333	0.938996	0.049610
01240														9.383840	3.796066	0.781287	-0.195067	0.017210	0.980639	0.920730	-0.341294	0.189139	0.337942	0.939799	0.050729
01241														9.314609	3.715702	0.810712	-0.204588	0.018925	0.978665	0.920050	-0.337582	0.198863	0.334143	0.941106	0.051654
01242														9.172400	3.161716	0.788991	-0.213880	0.020406	0.976647	0.919639	-0.332946	0.208352	0.329422	0.942725	0.052445
01243														9.168901	2.727876	0.862763	-0.222940	0.021783	0.974589	0.919273	-0.327993	0.217617	0.324399	0.944429	0.053098
01244														9.333351	2.580188	0.842262	-0.231682	0.023297	0.972513	0.918630	-0.323685	0.226600	0.320067	0.945878	0.053591
01245														9.397377	2.708209	0.867035	-0.239905	0.024958	0.970475	0.917697	-0.320254	0.235094	0.316666	0.947003	0.053927
01246														9.491367	3.193374	0.792203	-0.247729	0.026680	0.968462	0.916676	-0.317097	0.243218	0.313586	0.948018	0.054097
01247														9.499538	3.860213	0.661958	-0.255164	0.028312	0.966483	0.915735	-0.313768	0.250957	0.310356	0.949078	0.054136
01248														9.382180	4.266529	0.514964	-0.262326	0.029835	0.964518	0.914921	-0.310055	0.258428	0.306764	0.950250	0.054038
01249														9.319464	4.265270	0.347557	-0.269239	0.031151	0.962569	0.914430	-0.305361	0.265656	0.302206	0.951727	0.053730
01250														9.416623	3.904960	0.305350	-0.275973	0.032225	0.960625	0.914374	-0.299236	0.272723	0.296242	0.953635	0.053115
01251														9.656602	3.400698	0.444785	-0.282634	0.033268	0.958651	0.914516	-0.292223	0.279763	0.289447	0.955771	0.052167
01252														9.681952	3.075348	0.613930	-0.289270	0.034287	0.956633	0.914695	-0.284750	0.286794	0.282234	0.957989	0.051007
01253														9.741505	2.876464	0.751184	-0.295925	0.035287	0.954559	0.914818	-0.277061	0.293846	0.274840	0.960204	0.049708
01254														9.786734	2.868539	0.775985	-0.302587	0.036144	0.952436	0.914891	-0.269165	0.300873	0.267237	0.962416	0.048378
01255														9.825454	2.936938	0.678344	-0.309201	0.036821	0.950284	0.915026	-0.260705	0.307831	0.259078	0.964716	0.046918
01256														9.812203	3.248291	0.418404	-0.316057	0.037554	0.947997	0.915152	-0.251452	0.315068	0.250208	0.967141	0.045105
01257														9.638785	3.096886	0.272678	-0.323295	0.038405	0.945518	0.915268	-0.241084	0.322744	0.240344	0.969744	0.042791
01258														9.538888	2.629380	0.246954	-0.330976	0.039255	0.942822	0.915332	-0.229531	0.330882	0.229396	0.972509	0.040038
01259														9.732056	2.088779	0.357443	-0.339006	0.040115	0.939929	0.915216	-0.217279	0.339366	0.217840	0.975285	0.036945
01260														9.941134	1.953232	0.569897	-0.347421	0.041089	0.936809	0.914672	-0.205239	0.348213	0.206577	0.977849	0.033722
01261														9.658306	2.101845	0.537057	-0.356046	0.042141	0.933518	0.913621	-0.194140	0.357221	0.196287	0.980068	0.030622
01262														9.388924	2.099582	0.158405	-0.364855	0.043097	0.930066	0.912144	-0.183814	0.366342	0.186747	0.982016	0.027755
01263														9.418404	1.939106	0.235929	-0.373986	0.044211	0.926380	0.910367	-0.173248	0.375789	0.177107	0.983886	0.024544
01264														9.498251	1.949355	0.045865	-0.383552	0.045491	0.922398	0.908176	-0.162729	0.385663	0.167645	0.985622	0.021101
01265														9.461586	2.089260	0.185990	-0.393377	0.046961	0.918177	0.905494	-0.153112	0.395774	0.159170	0.987092	0.017707
01266														9.385776	2.432472	0.232338	-0.403297	0.048532	0.913781	0.902336	-0.144919	0.405942	0.152126	0.988253	0.014653
01267														9.324769	3.124173	0.201753	-0.413110	0.050252	0.909294	0.898831	-0.138055	0.415986	0.146437	0.989149	0.011863
01268														9.235746	3.983773	0.285307	-0.422622	0.052247	0.904799	0.895113	-0.132357	0.425740	0.142000	0.989824	0.009170
01269														9.086819	4.819398	0.438123	-0.431731	0.054448	0.900358	0.891333	-0.127320	0.435103	0.138324	0.990366	0.006436
01270														8.982728	5.473030	0.522997	-0.440558	0.056774	0.895927	0.887565	-0.122167	0.444188	0.134672	0.990884	0.003431
01271														8.772796	5.778191	0.592090	-0.449146	0.059093	0.891502	0.883893	-0.116230	0.453017	0.130389	0.991463	-0.000027
01272														8.667771	5.740070	0.740066	-0.457507	0.061219	0.887096	0.880328	-0.109436	0.461569	0.125337	0.992107	-0.003825
01273														8.882889	5.419303	0.694504	-0.465613	0.063436	0.882712	0.876859	-0.101815	0.469843	0.119678	0.992779	-0.008219
01274														9.083913	4.871079	0.689862	-0.473496	0.065947	0.878324	0.873427	-0.093565	0.477882	0.113696	0.993427	-0.013297
01275														8.991747	4.476851	0.700858	-0.481319	0.068555	0.873861	0.869852	-0.085611	0.485827	0.108118	0.993967	-0.018427
01276														8.934602	4.097697	0.602020	-0.489229	0.071067	0.869255	0.866040	-0.078230	0.493816	0.103096	0.994399	-0.023274
01277														9.179200	3.896274	0.543829	-0.497134	0.073600	0.864547	0.862102	-0.070835	0.501759	0.098169	0.994769	-0.028236
01278														9.598564	3.858199	0.674877	-0.505161	0.076184	0.859656	0.857979	-0.063228	0.509779	0.093191	0.995087	-0.033424
01279														9.899256	3.969792	0.587251	-0.513413	0.078928	0.854504	0.853571	-0.055666	0.517994	0.088451	0.995325	-0.038790
01280														9.977418	4.262151	0.416859	-0.521881	0.081942	0.849074	0.848879	-0.048052	0.526398	0.083933	0.995478	-0.044482
01281														9.712442	4.635242	0.357647	-0.530390	0.085116	0.843470	0.844027	-0.040177	0.534794	0.079408	0.995561	-0.050531
01282														9.493609	4.881447	0.201233	-0.538918	0.088231	0.837725	0.839033	-0.032050	0.543135	0.074770	0.995584	-0.056756
01283														9.452898	4.775417	0.094335	-0.547566	0.091347	0.831762	0.833842	-0.023404	0.551506	0.069845	0.995544	-0.063354
01284														9.471998	4.368491	-0.069836	-0.556465	0.094399	0.825491	0.828390	-0.013698	0.559985	0.064170	0.995440	-0.070577
01285														9.564329	3.936232	0.088578	-0.565574	0.097525	0.818910	0.822655	-0.003121	0.568532	0.058002	0.995228	-0.078464
01286														9.619694	3.313364	0.069084	-0.575005	0.100629	0.811938	0.816486	0.007311	0.577319	0.052159	0.994897	-0.086365
01287														9.577809	3.024154	-0.064950	-0.584700	0.103641	0.804602	0.809887	0.017103	0.586337	0.047007	0.994468	-0.093938
01288														9.600306	2.897281	0.087183	-0.594504	0.106699	0.796982	0.802969	0.026411	0.595435	0.042483	0.993941	-0.101378
01289														9.631984	2.873906	-0.003505	-0.604561	0.109601	0.788982	0.795614	0.034870	0.604799	0.038775	0.993364	-0.108281
01290														9.679702	2.938863	-0.355895	-0.614692	0.112396	0.780718	0.787940	0.042178	0.614306	0.036116	0.992768	-0.114488
01291														9.658540	3.526317	-0.611407	-0.624735	0.114952	0.772329	0.780100	0.048916	0.623740	0.033921	0.992166	-0.120234
01292														9.500639	4.318982	-0.741533	-0.634647	0.117263	0.763854	0.772147	0.055506	0.633015	0.031831	0.991549	-0.125771
01293														9.426188	4.376144	-1.099363	-0.644540	0.119391	0.755191	0.763986	0.061964	0.642250	0.029885	0.990912	-0.131151
01294														9.543680	4.475609	-1.437569	-0.654244	0.121009	0.746540	0.755787	0.068860	0.651186	0.027392	0.990260	-0.136509
01295														9.772718	5.341123	-1.506946	-0.663472	0.122218	0.738151	0.747797	0.075905	0.659574	0.024583	0.989597	-0.141755
01296														9.741331	7.098049	-1.479329	-0.671860	0.123274	0.730347	0.740359	0.082865	0.667084	0.021714	0.988907	-0.146941
01297														9.249704	8.728418	-1.401277	-0.679301	0.124265	0.723262	0.733627	0.090142	0.673548	0.018502	0.988146	-0.152397
01298														8.381420	9.533152	-1.352680	-0.686002	0.124586	0.716854	0.727468	0.098678	0.679009	0.013857	0.987290	-0.158326
01299														7.460542	9.573620	-1.600352	-0.692120	0.123642	0.711114	0.721754	0.109771	0.683390	0.006436	0.986237	-0.165214
01300														6.676409	8.979089	-2.075354	-0.697659	0.120831	0.706167	0.716417	0.123805	0.686600	-0.004465	0.984922	-0.172939
01301														6.543335	8.111647	-1.851614	-0.703129	0.116604	0.701436	0.710832	0.140350	0.689216	-0.018082	0.983212	-0.181570
01302														6.984351	7.477793	-0.976839	-0.708839	0.110868	0.696603	0.704590	0.157733	0.691862	-0.033172	0.981238	-0.189924
01303														7.494658	6.776341	-0.536561	-0.714642	0.102998	0.691865	0.697748	0.174729	0.694707	-0.049336	0.979215	-0.196735
01304														7.918616	6.160937	-0.625209	-0.720144	0.092999	0.687563	0.690554	0.192172	0.697284	-0.067283	0.976945	-0.202612
01305														8.080008	6.103401	-0.511977	-0.725440	0.081387	0.683457	0.682724	0.211062	0.699529	-0.087319	0.974078	-0.208678
01306														7.897889	6.230981	0.103798	-0.730701	0.068452	0.679258	0.673989	0.230747	0.701780	-0.108698	0.970603	-0.214742
01307														7.233037	5.745876	0.250436	-0.735767	0.054824	0.675012	0.664455	0.251159	0.703860	-0.130947	0.966392	-0.221222
01308														6.510086	5.169210	-0.109787	-0.740249	0.040776	0.671095	0.654188	0.274008	0.704952	-0.155140	0.960863	-0.229510
01309														6.075444	5.179513	-0.252416	-0.744210	0.026017	0.667439	0.642814	0.299419	0.705081	-0.181500	0.953767	-0.239554
01310														6.109432	6.104186	-0.382029	-0.747882	0.009896	0.663757	0.630008	0.325676	0.705000	-0.209193	0.945430	-0.249802
01311														6.169405	7.386454	-0.420507	-0.751535	-0.007956	0.659645	0.615138	0.352793	0.705083	-0.238328	0.935668	-0.260242
01312														6.072865	8.334787	0.018584	-0.754970	-0.026908	0.655207	0.597787	0.382502	0.704516	-0.269575	0.923563	-0.272693
01313														6.319423	7.197480	0.711221	-0.757472	-0.047058	0.651169	0.577621	0.416560	0.702020	-0.304287	0.907889	-0.288351
01314														6.409461	4.888584	1.145348	-0.758760	-0.069510	0.647651	0.554604	0.452514	0.698316	-0.341611	0.889044	-0.304799
01315														5.971477	3.434068	-0.460976	-0.758334	-0.093924	0.645064	0.530222	0.486773	0.694202	-0.379202	0.868464	-0.319336
01316														5.936246	2.387668	-1.919782	-0.755852	-0.117891	0.644041	0.507237	0.516542	0.689851	-0.414002	0.848107	-0.330631
01317														6.344012	1.086666	-2.683663	-0.751806	-0.139122	0.644541	0.488626	0.538809	0.686244	-0.442756	0.830861	-0.337101
01318														6.365945	-0.085900	-3.859435	-0.746708	-0.156872	0.646388	0.476329	0.552174	0.684262	-0.464260	0.818838	-0.337590
01319														5.440186	0.132855	-4.904309	-0.741160	-0.171537	0.649044	0.470150	0.557499	0.684218	-0.479210	0.812263	-0.332548
01320														4.013682	1.813753	-5.112724	-0.735222	-0.184925	0.652113	0.468878	0.556003	0.686305	-0.489492	0.810348	-0.322079
01321														2.984501	4.181223	-4.745445	-0.728431	-0.199135	0.655541	0.471455	0.548562	0.690514	-0.497110	0.812050	-0.305707
01322														2.841096	6.530763	-4.408935	-0.720389	-0.215021	0.659398	0.477251	0.536178	0.696236	-0.503260	0.816259	-0.283638
01323														3.271520	8.344874	-4.158064	-0.711418	-0.232166	0.663312	0.484782	0.521214	0.702370	-0.508794	0.821240	-0.258251
01324														3.975502	9.488156	-3.611519	-0.702168	-0.249208	0.666975	0.492621	0.506314	0.707793	-0.514087	0.825555	-0.232752
01325														4.465308	10.108581	-3.487479	-0.692717	-0.264811	0.670834	0.499451	0.494869	0.711093	-0.520280	0.827635	-0.210544
01326														4.629742	10.507872	-3.334492	-0.682849	-0.278252	0.675495	0.503872	0.490133	0.711254	-0.528990	0.826042	-0.194484
01327														4.547519	10.463268	-2.922905	-0.672517	-0.289474	0.681121	0.505521	0.492498	0.708445	-0.540527	0.820762	-0.184878
01328														4.257119	9.864551	-2.510251	-0.661341	-0.299544	0.687679	0.505035	0.500030	0.703498	-0.554588	0.812554	-0.179410
01329														3.929561	8.930246	-2.602522	-0.648761	-0.309642	0.695148	0.503147	0.510787	0.697093	-0.570922	0.802009	-0.175584
01330														3.877951	8.012571	-3.231667	-0.634586	-0.320330	0.703342	0.499732	0.524142	0.689596	-0.589549	0.789090	-0.172534
01331														4.323215	7.282938	-3.789414	-0.619323	-0.331167	0.711876	0.494643	0.539550	0.681333	-0.609728	0.774089	-0.170346
01332														5.117616	6.892599	-3.990005	-0.603378	-0.341529	0.720620	0.489229	0.555083	0.672709	-0.629753	0.758446	-0.167840
01333														5.662303	6.544505	-3.766791	-0.586917	-0.350384	0.729904	0.485469	0.569177	0.663595	-0.647957	0.743820	-0.163959
01334														5.930021	5.875813	-3.639504	-0.569979	-0.357341	0.739886	0.484494	0.581111	0.653892	-0.663619	0.731175	-0.158092
01335														5.875236	5.122317	-3.847194	-0.552479	-0.362548	0.750551	0.486095	0.591336	0.643454	-0.677110	0.720334	-0.150468
01336														5.597164	4.858021	-4.031547	-0.534284	-0.366328	0.761804	0.489375	0.600783	0.632117	-0.689241	0.710537	-0.141716
01337														5.569855	5.390628	-3.940353	-0.515474	-0.368662	0.773547	0.493412	0.610356	0.619686	-0.700593	0.701109	-0.132721
01338														5.944726	6.521045	-3.611089	-0.495987	-0.369841	0.785630	0.497860	0.620156	0.606253	-0.711430	0.691827	-0.123460
01339														6.615525	7.805059	-3.162636	-0.475788	-0.370068	0.797919	0.502482	0.630205	0.591907	-0.721898	0.682563	-0.113891
01340														7.226268	8.298048	-2.942093	-0.455069	-0.369677	0.810093	0.506526	0.640757	0.576942	-0.732355	0.672882	-0.104338
01341														7.514109	7.911292	-3.151691	-0.434060	-0.368391	0.822119	0.508666	0.652964	0.561157	-0.743539	0.661760	-0.096038
01342														7.553458	6.897431	-3.189419	-0.413087	-0.365781	0.834005	0.507500	0.667952	0.544320	-0.756177	0.648109	-0.090289
01343														7.805688	5.468283	-2.951363	-0.392286	-0.361724	0.845735	0.502931	0.685489	0.526465	-0.770177	0.631871	-0.086985
01344														8.674002	4.228143	-2.753115	-0.371566	-0.356536	0.857217	0.495671	0.704532	0.507882	-0.785015	0.613610	-0.085056
01345														9.981574	3.257268	-2.138861	-0.351243	-0.350581	0.868171	0.487223	0.723374	0.489229	-0.799526	0.594831	-0.083269
01346														11.162755	2.242665	-1.810117	-0.331816	-0.344307	0.878266	0.479436	0.740258	0.471338	-0.812428	0.577470	-0.080556
01347														11.615570	0.875289	-2.147539	-0.313420	-0.337912	0.887459	0.472660	0.755045	0.454421	-0.823626	0.561891	-0.076929
01348														11.485326	-0.263243	-2.752978	-0.296094	-0.331052	0.895953	0.466120	0.768658	0.438060	-0.833703	0.547329	-0.073286
01349														11.188585	-0.425708	-3.241569	-0.279586	-0.323358	0.904031	0.459843	0.781465	0.421732	-0.842838	0.533622	-0.069792
01350														11.072509	0.191117	-3.289680	-0.263537	-0.314933	0.911793	0.454742	0.793034	0.405348	-0.850740	0.521455	-0.065781
01351														11.074103	0.936175	-3.192753	-0.247678	-0.306259	0.919163	0.451581	0.802871	0.389194	-0.857164	0.511472	-0.060553
01352														10.924895	1.326576	-3.123409	-0.231989	-0.297465	0.926119	0.449903	0.811321	0.373291	-0.862420	0.503263	-0.054387
01353														10.972641	1.208342	-3.171083	-0.216756	-0.288300	0.932684	0.448818	0.819011	0.357468	-0.866936	0.496089	-0.048132
01354														11.069427	0.731630	-3.099595	-0.202423	-0.278783	0.938779	0.447429	0.826391	0.341884	-0.871110	0.489242	-0.042545
01355														11.101838	0.156553	-3.045274	-0.188919	-0.268982	0.944436	0.445565	0.833574	0.326536	-0.875089	0.482496	-0.037629
01356														10.971070	-0.259386	-2.569389	-0.176084	-0.258888	0.949722	0.443568	0.840427	0.311335	-0.878773	0.476087	-0.033151
01357														10.844179	-0.505922	-2.405391	-0.163588	-0.248637	0.954683	0.442177	0.846590	0.296253	-0.881884	0.470602	-0.028550
01358														10.798310	-0.316821	-2.754643	-0.151200	-0.238128	0.959392	0.440977	0.852374	0.281064	-0.884691	0.465567	-0.023870
01359														10.788236	0.364540	-2.558214	-0.139111	-0.227241	0.963852	0.440168	0.857691	0.265741	-0.887074	0.461224	-0.019290
01360														10.702949	1.007284	-2.150563	-0.127512	-0.215749	0.968087	0.440711	0.862083	0.250173	-0.888546	0.458547	-0.014843
01361														10.473533	1.267417	-2.019632	-0.116107	-0.203486	0.972169	0.441660	0.866120	0.234036	-0.889638	0.456541	-0.010691
01362														10.314121	1.325220	-1.991642	-0.104755	-0.190043	0.976171	0.441220	0.870798	0.216877	-0.891264	0.453425	-0.007370
01363														10.258070	1.532466	-1.664333	-0.093639	-0.175476	0.980020	0.439152	0.876134	0.198835	-0.893520	0.448996	-0.004979
01364														10.270790	1.733152	-1.439197	-0.082657	-0.160147	0.983626	0.435661	0.881890	0.180193	-0.896307	0.443422	-0.003125
01365														10.266441	1.983856	-1.190248	-0.071506	-0.144373	0.986936	0.430213	0.888236	0.161105	-0.899891	0.436112	-0.001403
01366														10.233393	2.017017	-0.794079	-0.060303	-0.128102	0.989926	0.422433	0.895267	0.141586	-0.904386	0.426716	0.000127
01367														10.203813	1.901106	-0.747026	-0.049213	-0.111420	0.992554	0.412407	0.902821	0.121795	-0.909670	0.415330	0.001520
01368														10.152764	1.661340	-0.929378	-0.038310	-0.094160	0.994820	0.399968	0.910878	0.101617	-0.915728	0.401789	0.002765
01369														10.064973	1.623207	-0.980560	-0.027878	-0.076630	0.996670	0.385396	0.919149	0.081449	-0.922330	0.386383	0.003909
01370														9.868080	1.733447	-0.794584	-0.018045	-0.059128	0.998087	0.369531	0.927174	0.061608	-0.929043	0.369936	0.005119
01371														9.610828	1.663553	-0.316184	-0.008459	-0.041701	0.999094	0.352801	0.934755	0.042002	-0.935660	0.352836	0.006805
01372														9.451141	1.182638	-0.258250	0.001163	-0.023912	0.999713	0.334770	0.942040	0.022143	-0.942299	0.334649	0.009101
01373														9.374009	0.733726	-0.425428	0.010656	-0.005511	0.999928	0.314667	0.949200	0.001878	-0.949142	0.314624	0.011849
01374														9.297253	0.495683	-0.435378	0.019521	0.013272	0.999721	0.292610	0.956055	-0.018406	-0.956033	0.292888	0.014779
01375														9.031405	0.584792	-0.544884	0.027863	0.031805	0.999106	0.268851	0.962427	-0.038136	-0.962779	0.269673	0.018266
01376														8.863100	0.724390	-0.424094	0.035966	0.049850	0.998109	0.242951	0.968356	-0.057118	-0.969372	0.244546	0.022717
01377														8.883206	0.509258	0.062168	0.043820	0.067253	0.996773	0.215632	0.973577	-0.075167	-0.975491	0.218230	0.028160
01378														9.185862	-0.137064	0.011836	0.051049	0.084128	0.995146	0.187533	0.977913	-0.092291	-0.980931	0.191334	0.034144
01379														9.524621	-0.825888	-0.209679	0.057181	0.100160	0.993327	0.158321	0.981455	-0.108077	-0.985731	0.163445	0.040264
