// General information: 
//  MT Manager version: 2022.2.0 
//  XDA version: 2022.2.0 build 7381 rev 124627 built on 2023-07-19
// Device information: 
//  DeviceId: 00B42D4B
//  ProductCode: MTW2-3A7G6
//  Firmware Version: 4.4.0
//  Hardware Version: 1.1.0
// Device settings: 
//  Filter Profile: human(46.1)
//  Option Flags: Orientation Smoother Disabled, Position/Velocity Smoother Disabled, Continuous Zero Rotation Update Disabled, AHS Disabled, ICC Disabled
// Coordinate system: ENU
PacketCounter SampleTimeFine Year Month Day Second Acc_X Acc_Y Acc_Z Gyr_X Gyr_Y Gyr_Z Mat[1][1] Mat[2][1] Mat[3][1] Mat[1][2] Mat[2][2] Mat[3][2] Mat[1][3] Mat[2][3] Mat[3][3]
51400      0.074225 -0.040975 9.922524 0.003078 0.004280 0.002706 -0.440001 -0.897938 0.010301 0.897983 -0.440030 -0.000639 0.005106 0.008969 0.999947
51401      0.057993 0.007234 9.938693 0.001590 0.004310 0.002149 -0.439997 -0.897940 0.010300 0.897984 -0.440027 -0.000650 0.005116 0.008963 0.999947
51402      0.040451 0.014429 9.928879 0.003244 0.003104 0.002185 -0.439991 -0.897943 0.010317 0.897988 -0.440020 -0.000630 0.005105 0.008988 0.999947
51403      0.045482 -0.009840 9.967645 0.002354 0.003944 0.001659 -0.439995 -0.897941 0.010322 0.897986 -0.440024 -0.000627 0.005105 0.008994 0.999947
51404      0.061840 -0.013683 9.956912 0.002574 0.006178 -0.001358 -0.440042 -0.897918 0.010288 0.897963 -0.440070 -0.000617 0.005082 0.008967 0.999947
51405      0.098434 -0.032980 9.944550 0.001031 0.002797 0.000582 -0.440051 -0.897913 0.010306 0.897958 -0.440080 -0.000632 0.005103 0.008977 0.999947
51406      0.084059 -0.036787 9.943838 0.004897 0.001897 0.002222 -0.440044 -0.897917 0.010343 0.897962 -0.440073 -0.000584 0.005076 0.009031 0.999946
51407      0.089620 -0.055791 9.941499 0.002826 0.005228 0.000674 -0.440065 -0.897907 0.010327 0.897952 -0.440094 -0.000571 0.005058 0.009022 0.999947
51408      0.054458 -0.046853 9.962972 0.002353 0.003943 0.001660 -0.440069 -0.897905 0.010331 0.897950 -0.440097 -0.000565 0.005054 0.009028 0.999946
51409      0.058679 -0.011430 9.956934 0.002438 0.004171 0.004213 -0.440042 -0.897918 0.010334 0.897963 -0.440071 -0.000559 0.005050 0.009033 0.999946
51410      0.055030 0.000045 9.947830 0.002227 0.004418 0.000644 -0.440085 -0.897897 0.010340 0.897942 -0.440113 -0.000557 0.005051 0.009039 0.999946
51411      0.054404 0.000374 9.947834 0.001755 0.003133 0.001630 -0.440099 -0.897889 0.010362 0.897935 -0.440128 -0.000565 0.005068 0.009056 0.999946
51412      0.060200 -0.016471 9.924939 0.001378 0.004556 -0.001419 -0.440169 -0.897855 0.010363 0.897901 -0.440198 -0.000574 0.005077 0.009053 0.999946
51413      0.034197 -0.038261 9.953166 0.003756 0.003686 -0.000335 -0.440180 -0.897850 0.010366 0.897895 -0.440209 -0.000551 0.005058 0.009065 0.999946
51414      0.050948 -0.039439 9.921888 0.002825 0.005228 0.000675 -0.440177 -0.897851 0.010343 0.897897 -0.440206 -0.000544 0.005041 0.009048 0.999946
51415      0.094825 -0.039566 9.953738 0.004605 0.003547 0.001729 -0.440158 -0.897861 0.010348 0.897906 -0.440186 -0.000507 0.005011 0.009069 0.999946
51416      0.111515 -0.043293 9.943023 0.001880 0.002658 0.002646 -0.440125 -0.897877 0.010368 0.897923 -0.440153 -0.000516 0.005027 0.009083 0.999946
51417      0.095677 0.007424 9.938585 0.002312 0.004645 0.003198 -0.440083 -0.897897 0.010355 0.897943 -0.440112 -0.000518 0.005023 0.009070 0.999946
51418      0.046917 0.014701 9.938743 0.003881 0.003211 0.000682 -0.440080 -0.897899 0.010366 0.897945 -0.440108 -0.000494 0.005005 0.009091 0.999946
51419      0.032074 0.008334 9.958577 0.001629 0.003607 0.000614 -0.440077 -0.897900 0.010370 0.897946 -0.440106 -0.000507 0.005019 0.009089 0.999946
51420      0.026793 -0.023841 9.944078 0.002227 0.004417 0.000645 -0.440074 -0.897902 0.010361 0.897947 -0.440103 -0.000509 0.005017 0.009079 0.999946
51421      0.052918 -0.053427 9.899035 0.002017 0.004663 -0.002925 -0.440125 -0.897877 0.010348 0.897923 -0.440153 -0.000515 0.005017 0.009065 0.999946
51422      0.089154 -0.075172 9.907290 0.002825 0.005227 0.000677 -0.440121 -0.897879 0.010325 0.897924 -0.440149 -0.000508 0.005001 0.009047 0.999947
51423      0.104367 -0.026883 9.913409 0.002211 0.000306 0.001606 -0.440104 -0.897887 0.010384 0.897933 -0.440132 -0.000512 0.005030 0.009099 0.999946
51424      0.095820 -0.055761 9.951473 -0.000805 0.001068 0.002026 -0.440080 -0.897898 0.010431 0.897944 -0.440109 -0.000565 0.005098 0.009117 0.999945
51425      0.082835 -0.016147 9.956130 0.004744 0.007182 0.001787 -0.440060 -0.897909 0.010375 0.897954 -0.440088 -0.000527 0.005039 0.009085 0.999946
51426      0.027282 0.008257 9.979148 0.001462 0.004782 0.001135 -0.440050 -0.897914 0.010360 0.897959 -0.440078 -0.000542 0.005046 0.009064 0.999946
51427      0.026823 0.011211 9.958590 0.003714 0.004386 0.001205 -0.440038 -0.897919 0.010351 0.897965 -0.440067 -0.000521 0.005023 0.009066 0.999946
51428      0.041372 -0.038669 9.963071 0.002268 0.003714 -0.000891 -0.440058 -0.897910 0.010353 0.897955 -0.440087 -0.000523 0.005026 0.009067 0.999946
51429      0.044096 -0.044236 9.931077 0.003422 0.006036 0.000709 -0.440054 -0.897912 0.010317 0.897957 -0.440082 -0.000506 0.004994 0.009042 0.999947
51430      0.094676 -0.061731 9.940090 0.000973 -0.000612 0.003081 -0.440015 -0.897931 0.010392 0.897976 -0.440043 -0.000530 0.005049 0.009098 0.999946
51431      0.105109 -0.048561 9.952269 0.002866 0.004524 -0.000859 -0.440034 -0.897921 0.010381 0.897967 -0.440063 -0.000522 0.005037 0.009092 0.999946
51432      0.097959 -0.030934 9.975154 0.003199 0.003804 0.003728 -0.439985 -0.897945 0.010381 0.897991 -0.440013 -0.000509 0.005025 0.009098 0.999946
51433      0.071617 0.009678 9.937933 0.003714 0.004385 0.001206 -0.439974 -0.897951 0.010373 0.897997 -0.440002 -0.000488 0.005002 0.009100 0.999946
51434      0.057274 0.008524 9.916639 0.003755 0.003683 -0.000331 -0.439985 -0.897945 0.010376 0.897991 -0.440013 -0.000465 0.004983 0.009113 0.999946
51435      0.048492 -0.017425 9.934153 0.002351 0.003941 0.001663 -0.439967 -0.897954 0.010374 0.898000 -0.439995 -0.000466 0.004983 0.009111 0.999946
51436      0.030575 -0.012594 9.944853 0.004353 0.004492 -0.000299 -0.439978 -0.897949 0.010364 0.897995 -0.440006 -0.000433 0.004949 0.009116 0.999946
51437      0.044968 -0.062569 9.949366 0.000489 0.005393 -0.001945 -0.440014 -0.897931 0.010338 0.897977 -0.440042 -0.000465 0.004967 0.009079 0.999946
51438      0.075827 -0.059723 9.918859 0.003364 0.002627 0.003208 -0.439973 -0.897951 0.010359 0.897997 -0.440000 -0.000449 0.004961 0.009104 0.999946
51439      0.106137 -0.061942 9.929476 0.000098 0.004338 0.001593 -0.439955 -0.897960 0.010351 0.898006 -0.439984 -0.000488 0.004992 0.009080 0.999946
51440      0.082084 -0.037693 9.942480 0.003837 0.003911 0.002224 -0.439929 -0.897973 0.010350 0.898019 -0.439957 -0.000464 0.004970 0.009090 0.999946
51441      0.075325 -0.017525 9.944791 0.002475 0.003467 0.002681 -0.439895 -0.897989 0.010356 0.898035 -0.439923 -0.000463 0.004972 0.009096 0.999946
51442      0.068595 0.002585 9.947098 0.003115 0.003575 0.001176 -0.439884 -0.897995 0.010361 0.898041 -0.439912 -0.000452 0.004964 0.009106 0.999946
51443      0.034357 0.019159 9.906793 0.002699 0.005698 -0.000337 -0.439896 -0.897989 0.010330 0.898035 -0.439924 -0.000447 0.004946 0.009081 0.999947
51444      0.038692 -0.007363 9.966179 0.005199 0.004353 0.001768 -0.439877 -0.897999 0.010322 0.898045 -0.439904 -0.000400 0.004900 0.009094 0.999947
51445      0.044497 -0.023886 9.943323 0.002268 0.003712 -0.000889 -0.439897 -0.897989 0.010325 0.898035 -0.439924 -0.000402 0.004903 0.009095 0.999947
51446      0.070108 -0.058702 9.939481 0.000098 0.004338 0.001594 -0.439880 -0.897998 0.010317 0.898043 -0.439907 -0.000441 0.004934 0.009071 0.999947
51447      0.080534 -0.042949 9.931102 0.004601 0.003544 0.001737 -0.439860 -0.898007 0.010322 0.898053 -0.439887 -0.000405 0.004904 0.009092 0.999947
51448      0.111163 -0.042489 9.921178 0.000987 0.003497 0.002122 -0.439835 -0.898019 0.010328 0.898065 -0.439863 -0.000429 0.004928 0.009087 0.999947
51449      0.084335 -0.007374 9.925023 0.000264 0.003161 0.001073 -0.439826 -0.898024 0.010340 0.898069 -0.439854 -0.000464 0.004965 0.009081 0.999946
51450      0.046044 0.010042 9.957810 0.002990 0.004047 0.000160 -0.439830 -0.898021 0.010336 0.898067 -0.439858 -0.000455 0.004955 0.009083 0.999946
51451      0.048720 0.001924 9.946385 0.002516 0.002764 0.001145 -0.439914 -0.897980 0.010364 0.898026 -0.439942 -0.000453 0.004967 0.009108 0.999946
51452      0.051028 -0.008760 9.955524 0.002225 0.004414 0.000649 -0.439963 -0.897956 0.010358 0.898002 -0.439990 -0.000454 0.004965 0.009102 0.999946
51453      0.046094 -0.038275 9.920500 0.003754 0.003680 -0.000328 -0.439985 -0.897945 0.010361 0.897991 -0.440013 -0.000430 0.004946 0.009115 0.999946
51454      0.078869 -0.054037 9.960845 0.000097 0.004337 0.001594 -0.439984 -0.897946 0.010354 0.897992 -0.440012 -0.000469 0.004977 0.009091 0.999946
51455      0.072548 -0.031475 9.942576 0.004891 0.001893 0.002235 -0.439975 -0.897950 0.010387 0.897996 -0.440003 -0.000428 0.004955 0.009139 0.999946
51456      0.086023 -0.026533 9.943336 0.003071 0.004276 0.002715 -0.439956 -0.897959 0.010381 0.898006 -0.439983 -0.000417 0.004942 0.009139 0.999946
51457      0.061998 -0.002078 9.956295 0.003113 0.003573 0.001178 -0.439961 -0.897957 0.010386 0.898003 -0.439988 -0.000405 0.004933 0.009148 0.999946
51458      0.061751 0.000933 9.935736 0.003113 0.003573 0.001178 -0.439962 -0.897956 0.010391 0.898003 -0.439990 -0.000393 0.004925 0.009158 0.999946
51459      0.058152 0.012438 9.926600 0.002101 0.004886 -0.000367 -0.439989 -0.897943 0.010374 0.897990 -0.440016 -0.000398 0.004922 0.009141 0.999946
51460      0.049357 -0.013548 9.944129 0.003280 0.002397 0.000658 -0.440003 -0.897936 0.010399 0.897983 -0.440030 -0.000383 0.004920 0.009170 0.999946
51461      0.057770 -0.043945 9.950996 0.000695 0.005146 0.001626 -0.440001 -0.897937 0.010378 0.897984 -0.440029 -0.000412 0.004936 0.009138 0.999946
51462      0.060550 -0.049630 9.919020 0.004148 0.004732 -0.003865 -0.440080 -0.897899 0.010364 0.897945 -0.440107 -0.000382 0.004904 0.009138 0.999946
51463      0.101549 -0.038770 9.941865 0.001874 0.002657 0.002652 -0.440061 -0.897908 0.010384 0.897955 -0.440088 -0.000391 0.004921 0.009153 0.999946
51464      0.087045 -0.042644 9.941112 0.003113 0.003573 0.001179 -0.440067 -0.897905 0.010390 0.897951 -0.440094 -0.000379 0.004913 0.009163 0.999946
51465      0.057255 0.003901 9.935763 0.002348 0.003939 0.001667 -0.440063 -0.897907 0.010389 0.897953 -0.440090 -0.000380 0.004913 0.009161 0.999946
51466      0.042259 -0.002484 9.955568 0.002348 0.003939 0.001667 -0.440059 -0.897909 0.010388 0.897955 -0.440086 -0.000381 0.004914 0.009160 0.999946
51467      0.041954 0.000446 9.935008 0.002989 0.004046 0.000163 -0.440080 -0.897899 0.010385 0.897945 -0.440107 -0.000371 0.004904 0.009162 0.999946
51468      0.064316 -0.025432 9.942650 0.003834 0.003908 0.002229 -0.440068 -0.897904 0.010385 0.897951 -0.440095 -0.000347 0.004882 0.009172 0.999946
51469      0.070053 -0.041997 9.919825 0.003463 0.005327 -0.000821 -0.440102 -0.897888 0.010361 0.897935 -0.440129 -0.000329 0.004856 0.009158 0.999946
51470      0.086131 -0.048490 9.929744 0.000096 0.004337 0.001594 -0.440100 -0.897889 0.010353 0.897935 -0.440127 -0.000368 0.004887 0.009134 0.999946
51471      0.071924 -0.050250 9.908421 0.000387 0.002688 0.002091 -0.440092 -0.897893 0.010373 0.897939 -0.440120 -0.000401 0.004926 0.009138 0.999946
51472      0.069534 -0.000261 9.945701 0.003236 0.003099 0.002197 -0.440083 -0.897897 0.010386 0.897944 -0.440110 -0.000388 0.004919 0.009156 0.999946
51473      0.043890 -0.019492 9.953322 0.001626 0.003603 0.000619 -0.440097 -0.897890 0.010391 0.897937 -0.440124 -0.000400 0.004933 0.009154 0.999946
51474      0.054366 -0.003813 9.944942 0.002347 0.003939 0.001669 -0.440096 -0.897891 0.010390 0.897937 -0.440123 -0.000402 0.004934 0.009153 0.999946
51475      0.028952 -0.020584 9.931998 0.002224 0.004412 0.000652 -0.440109 -0.897884 0.010381 0.897931 -0.440136 -0.000404 0.004932 0.009144 0.999946
51476      0.072992 -0.018461 9.943458 0.001977 0.005357 -0.001382 -0.440151 -0.897864 0.010357 0.897910 -0.440178 -0.000411 0.004928 0.009118 0.999946
51477      0.064921 -0.039526 9.919870 0.002761 0.001817 0.003183 -0.440125 -0.897876 0.010391 0.897923 -0.440152 -0.000406 0.004938 0.009152 0.999946
51478      0.063890 -0.041442 9.940441 0.004061 0.006135 -0.000787 -0.440159 -0.897860 0.010354 0.897906 -0.440186 -0.000378 0.004897 0.009130 0.999946
51479      0.073953 -0.027955 9.952628 0.003402 0.001923 0.001678 -0.440158 -0.897860 0.010386 0.897907 -0.440185 -0.000361 0.004896 0.009167 0.999946
51480      0.077096 -0.033715 9.920659 0.000861 0.003969 0.001107 -0.440164 -0.897857 0.010385 0.897904 -0.440191 -0.000387 0.004919 0.009154 0.999946
51481      0.072740 -0.027289 9.952639 0.002944 0.004747 0.001702 -0.440161 -0.897859 0.010370 0.897905 -0.440188 -0.000378 0.004904 0.009145 0.999946
51482      0.049031 -0.000414 9.944971 0.002268 0.003708 -0.000885 -0.440196 -0.897842 0.010373 0.897889 -0.440223 -0.000380 0.004908 0.009147 0.999946
51483      0.051657 -0.008623 9.933566 0.002346 0.003938 0.001670 -0.440190 -0.897845 0.010372 0.897891 -0.440217 -0.000381 0.004908 0.009146 0.999946
51484      0.065744 0.000923 9.893215 0.001502 0.004075 -0.000397 -0.440218 -0.897831 0.010369 0.897877 -0.440246 -0.000396 0.004920 0.009136 0.999946
51485      0.064879 -0.063295 9.979357 0.002558 0.002059 -0.000388 -0.440246 -0.897817 0.010400 0.897864 -0.440273 -0.000393 0.004931 0.009164 0.999946
51486      0.050098 -0.007480 9.933575 0.003357 0.002625 0.003217 -0.440219 -0.897830 0.010420 0.897877 -0.440246 -0.000377 0.004926 0.009190 0.999946
51487      0.085919 -0.031629 9.962606 0.002530 0.006868 0.000190 -0.440235 -0.897823 0.010371 0.897869 -0.440262 -0.000375 0.004903 0.009146 0.999946
51488      0.088662 -0.037295 9.930645 0.002988 0.004043 0.000166 -0.440252 -0.897815 0.010368 0.897861 -0.440279 -0.000365 0.004893 0.009148 0.999946
51489      0.067969 -0.021584 9.932119 0.001028 0.002793 0.000587 -0.440262 -0.897810 0.010386 0.897856 -0.440289 -0.000389 0.004922 0.009154 0.999946
51490      0.053738 -0.023013 9.910781 0.003585 0.004852 0.000200 -0.440278 -0.897802 0.010369 0.897848 -0.440305 -0.000369 0.004897 0.009148 0.999946
51491      0.049033 -0.018915 9.963319 0.001748 0.003129 0.001637 -0.440274 -0.897803 0.010382 0.897850 -0.440302 -0.000380 0.004912 0.009154 0.999946
51492      0.049232 -0.013519 9.922193 0.003831 0.003906 0.002234 -0.440261 -0.897810 0.010382 0.897857 -0.440288 -0.000357 0.004891 0.009164 0.999946
51493      0.067956 -0.033559 9.961866 -0.000503 0.003527 0.001561 -0.440257 -0.897812 0.010387 0.897858 -0.440284 -0.000405 0.004937 0.009148 0.999946
51494      0.067763 -0.030755 9.941306 0.004596 0.003539 0.001748 -0.440247 -0.897816 0.010393 0.897863 -0.440274 -0.000369 0.004907 0.009169 0.999946
51495      0.084364 -0.034688 9.930692 0.000094 0.004336 0.001595 -0.440243 -0.897818 0.010385 0.897865 -0.440271 -0.000407 0.004938 0.009145 0.999946
51496      0.066320 -0.030005 9.941318 0.004305 0.005187 0.001251 -0.440243 -0.897819 0.010363 0.897865 -0.440270 -0.000376 0.004900 0.009139 0.999946
51497      0.076636 -0.014073 9.932944 0.002865 0.004515 -0.000850 -0.440275 -0.897803 0.010353 0.897850 -0.440302 -0.000368 0.004889 0.009133 0.999946
51498      0.044321 -0.015996 9.963346 0.003110 0.003570 0.001185 -0.440275 -0.897803 0.010358 0.897850 -0.440302 -0.000357 0.004881 0.009143 0.999946
51499      0.064154 -0.028540 9.941337 0.001457 0.004777 0.001142 -0.440275 -0.897803 0.010342 0.897850 -0.440302 -0.000373 0.004888 0.009122 0.999946
51500      0.077286 -0.023851 9.942130 0.003540 0.005553 0.001739 -0.440268 -0.897807 0.010314 0.897853 -0.440294 -0.000354 0.004859 0.009105 0.999947
51501      0.076863 -0.021038 9.921572 0.000737 0.004440 0.000091 -0.440285 -0.897799 0.010305 0.897845 -0.440312 -0.000382 0.004880 0.009084 0.999947
51502      0.076279 -0.020702 9.921577 0.003354 0.002624 0.003220 -0.440254 -0.897814 0.010325 0.897860 -0.440280 -0.000366 0.004875 0.009110 0.999947
51503      0.060961 -0.029361 9.961925 0.003110 0.003569 0.001186 -0.440253 -0.897814 0.010331 0.897860 -0.440280 -0.000355 0.004867 0.009119 0.999947
51504      0.026527 -0.015426 9.942012 0.001334 0.005249 0.000125 -0.440267 -0.897808 0.010308 0.897854 -0.440294 -0.000374 0.004874 0.009090 0.999947
51505      0.062664 -0.037187 9.950541 0.003585 0.004850 0.000203 -0.440279 -0.897802 0.010291 0.897848 -0.440306 -0.000354 0.004849 0.009084 0.999947
51506      0.075912 -0.032490 9.951338 0.001502 0.004073 -0.000395 -0.440302 -0.897791 0.010287 0.897837 -0.440328 -0.000369 0.004861 0.009074 0.999947
51507      0.074833 -0.034626 9.971910 0.002344 0.003936 0.001673 -0.440293 -0.897795 0.010286 0.897841 -0.440319 -0.000370 0.004861 0.009072 0.999947
51508      0.078006 -0.040365 9.939956 0.002634 0.002288 0.002170 -0.440276 -0.897803 0.010312 0.897849 -0.440303 -0.000367 0.004870 0.009097 0.999947
51509      0.056774 -0.027055 9.961956 0.001931 0.006056 0.000159 -0.440291 -0.897796 0.010276 0.897842 -0.440317 -0.000375 0.004861 0.009061 0.999947
51510      0.056471 -0.024165 9.941395 0.003353 0.002624 0.003222 -0.440259 -0.897812 0.010296 0.897858 -0.440285 -0.000360 0.004856 0.009086 0.999947
51511      0.055894 -0.023882 9.941399 0.000093 0.004335 0.001595 -0.440250 -0.897816 0.010288 0.897862 -0.440277 -0.000399 0.004888 0.009062 0.999947
51512      0.052246 -0.012585 9.932230 0.002819 0.005216 0.000690 -0.440255 -0.897814 0.010266 0.897860 -0.440282 -0.000393 0.004872 0.009044 0.999947
51513      0.071504 -0.027508 9.930816 0.002819 0.005216 0.000691 -0.440259 -0.897812 0.010242 0.897858 -0.440286 -0.000385 0.004855 0.009027 0.999947
51514      0.074092 -0.035739 9.919431 0.001746 0.003128 0.001640 -0.440246 -0.897819 0.010254 0.897864 -0.440273 -0.000397 0.004871 0.009032 0.999947
51515      0.070228 -0.026796 9.930827 0.002343 0.003936 0.001674 -0.440236 -0.897823 0.010253 0.897869 -0.440263 -0.000398 0.004872 0.009030 0.999947
51516      0.052340 -0.021888 9.941423 0.004593 0.003536 0.001753 -0.440226 -0.897829 0.010258 0.897874 -0.440252 -0.000362 0.004841 0.009051 0.999947
51517      0.051974 -0.018902 9.920862 0.001931 0.006055 0.000160 -0.440232 -0.897826 0.010221 0.897871 -0.440259 -0.000371 0.004833 0.009013 0.999948
51518      0.064440 -0.019204 9.962800 0.001914 0.001952 0.001120 -0.440226 -0.897829 0.010252 0.897874 -0.440252 -0.000380 0.004855 0.009037 0.999947
51519      0.067124 -0.027544 9.951416 0.001334 0.005247 0.000126 -0.440235 -0.897825 0.010228 0.897870 -0.440261 -0.000399 0.004861 0.009008 0.999948
51520      0.080773 -0.020592 9.931658 0.001502 0.004071 -0.000394 -0.440252 -0.897816 0.010224 0.897861 -0.440279 -0.000414 0.004873 0.008997 0.999948
51521      0.062799 -0.015946 9.942248 0.002221 0.004407 0.000658 -0.440252 -0.897816 0.010214 0.897861 -0.440279 -0.000418 0.004872 0.008987 0.999948
51522      0.078936 -0.022297 9.952238 0.002986 0.004039 0.000172 -0.440261 -0.897812 0.010210 0.897857 -0.440287 -0.000409 0.004863 0.008988 0.999948
51523      0.044299 -0.010834 9.952838 0.001148 0.002319 0.001607 -0.440243 -0.897820 0.010235 0.897865 -0.440270 -0.000431 0.004893 0.009000 0.999948
51524      0.078328 -0.019226 9.931680 0.002342 0.003935 0.001676 -0.440229 -0.897827 0.010233 0.897872 -0.440256 -0.000432 0.004893 0.008997 0.999948
51525      0.066433 -0.034302 9.940063 0.000689 0.005142 0.001630 -0.440218 -0.897833 0.010211 0.897878 -0.440245 -0.000461 0.004910 0.008965 0.999948
51526      0.059440 -0.014470 9.942271 0.001333 0.005246 0.000127 -0.440225 -0.897830 0.010187 0.897874 -0.440252 -0.000480 0.004916 0.008935 0.999948
51527      0.072623 -0.009728 9.943085 0.004349 0.004479 -0.000279 -0.440239 -0.897823 0.010176 0.897867 -0.440266 -0.000448 0.004882 0.008939 0.999948
51528      0.074836 -0.020276 9.952274 0.001745 0.003127 0.001642 -0.440220 -0.897832 0.010187 0.897876 -0.440247 -0.000460 0.004898 0.008944 0.999948
51529      0.088610 -0.013127 9.932522 0.003583 0.004846 0.000207 -0.440225 -0.897830 0.010169 0.897874 -0.440252 -0.000441 0.004873 0.008937 0.999948
51530      0.056616 -0.012564 9.942290 0.002342 0.003934 0.001676 -0.440207 -0.897839 0.010166 0.897883 -0.440234 -0.000442 0.004872 0.008934 0.999948
51531      0.041975 -0.016448 9.941483 0.002341 0.003934 0.001677 -0.440191 -0.897846 0.010165 0.897891 -0.440218 -0.000444 0.004873 0.008931 0.999948
51532      0.057672 -0.025218 9.972053 0.003060 0.004270 0.002729 -0.440162 -0.897861 0.010157 0.897905 -0.440189 -0.000434 0.004861 0.008929 0.999948
51533      0.064196 -0.039659 9.928728 0.001268 0.001847 0.002625 -0.440132 -0.897875 0.010190 0.897920 -0.440159 -0.000453 0.004892 0.008950 0.999948
51534      0.080499 -0.045977 9.938735 0.004349 0.004478 -0.000278 -0.440142 -0.897870 0.010178 0.897915 -0.440169 -0.000421 0.004858 0.008954 0.999948
51535      0.084203 -0.012958 9.953127 0.001286 0.005949 0.001666 -0.440126 -0.897879 0.010143 0.897923 -0.440152 -0.000441 0.004860 0.008913 0.999948
51536      0.069911 -0.014369 9.931751 0.003873 0.003198 0.000706 -0.440122 -0.897881 0.010152 0.897925 -0.440148 -0.000417 0.004843 0.008933 0.999948
51537      0.051941 -0.009520 9.942319 0.002172 0.005109 0.002198 -0.440098 -0.897893 0.010131 0.897937 -0.440124 -0.000421 0.004837 0.008911 0.999949
51538      0.051612 -0.006728 9.921755 0.002220 0.004405 0.000660 -0.440094 -0.897895 0.010120 0.897939 -0.440120 -0.000425 0.004836 0.008900 0.999949
51539      0.073404 -0.035175 9.950151 0.002986 0.004037 0.000175 -0.440098 -0.897893 0.010117 0.897937 -0.440124 -0.000416 0.004826 0.008901 0.999949
51540      0.069804 -0.023646 9.940966 0.002817 0.005213 0.000695 -0.440096 -0.897894 0.010093 0.897938 -0.440123 -0.000409 0.004810 0.008883 0.999949
51541      0.058311 -0.036241 9.928778 0.000736 0.004437 0.000093 -0.440100 -0.897892 0.010083 0.897936 -0.440126 -0.000439 0.004831 0.008860 0.999949
51542      0.060691 -0.047051 9.937975 0.002154 0.001008 0.003158 -0.440060 -0.897911 0.010129 0.897955 -0.440086 -0.000443 0.004856 0.008900 0.999949
51543      0.098848 -0.025096 9.951816 0.004301 0.005180 0.001263 -0.440048 -0.897917 0.010106 0.897961 -0.440075 -0.000412 0.004817 0.008894 0.999949
51544      0.057057 -0.032621 9.908224 0.000856 0.003966 0.001111 -0.440040 -0.897921 0.010104 0.897965 -0.440067 -0.000438 0.004840 0.008880 0.999949
51545      0.063386 -0.013266 9.952365 0.002388 0.003229 0.000140 -0.440045 -0.897919 0.010113 0.897963 -0.440071 -0.000438 0.004844 0.008888 0.999949
51546      0.046437 -0.003618 9.921782 0.002985 0.004037 0.000176 -0.440049 -0.897917 0.010110 0.897961 -0.440076 -0.000429 0.004834 0.008889 0.999949
51547      0.068172 -0.032068 9.950199 0.002099 0.004876 -0.000357 -0.440062 -0.897911 0.010092 0.897954 -0.440088 -0.000435 0.004832 0.008871 0.999949
51548      0.064720 -0.020695 9.941007 0.001863 0.002654 0.002662 -0.440029 -0.897926 0.010112 0.897970 -0.440056 -0.000445 0.004849 0.008884 0.999949
51549      0.050146 -0.024625 9.940187 0.002219 0.004404 0.000661 -0.440027 -0.897928 0.010102 0.897971 -0.440054 -0.000448 0.004848 0.008874 0.999949
51550      0.080626 -0.024424 9.930473 0.001332 0.005244 0.000129 -0.440036 -0.897924 0.010079 0.897967 -0.440062 -0.000467 0.004854 0.008845 0.999949
51551      0.079491 -0.026704 9.951047 0.000379 0.002687 0.002094 -0.440010 -0.897936 0.010098 0.897980 -0.440037 -0.000501 0.004894 0.008847 0.999949
51552      0.076113 -0.015259 9.941854 0.004469 0.004004 0.000744 -0.440006 -0.897938 0.010095 0.897982 -0.440032 -0.000467 0.004862 0.008859 0.999949
51553      0.058162 -0.010335 9.952400 0.002339 0.003933 0.001680 -0.439989 -0.897946 0.010093 0.897990 -0.440016 -0.000468 0.004862 0.008857 0.999949
51554      0.071942 -0.003276 9.932665 0.002219 0.004404 0.000662 -0.439985 -0.897949 0.010084 0.897992 -0.440011 -0.000472 0.004861 0.008847 0.999949
51555      0.060045 -0.018218 9.941042 0.002219 0.004404 0.000662 -0.439980 -0.897951 0.010074 0.897994 -0.440007 -0.000476 0.004860 0.008837 0.999949
51556      0.059306 -0.017797 9.941047 0.002865 0.004507 -0.000841 -0.440000 -0.897942 0.010063 0.897985 -0.440026 -0.000468 0.004848 0.008830 0.999949
51557      0.064560 -0.036948 9.938889 0.003413 0.006018 0.000734 -0.439998 -0.897943 0.010027 0.897986 -0.440024 -0.000452 0.004818 0.008805 0.999950
51558      0.081137 -0.040877 9.928362 0.001862 0.002654 0.002663 -0.439965 -0.897959 0.010046 0.898002 -0.439991 -0.000461 0.004834 0.008819 0.999949
51559      0.077255 -0.031844 9.939734 0.003056 0.004268 0.002734 -0.439928 -0.897977 0.010039 0.898020 -0.439955 -0.000451 0.004822 0.008816 0.999950
51560      0.067171 -0.003157 9.953265 0.001622 0.003596 0.000627 -0.439925 -0.897978 0.010043 0.898022 -0.439951 -0.000464 0.004835 0.008814 0.999949
51561      0.027917 -0.024187 9.939401 0.003105 0.003564 0.001196 -0.439915 -0.897983 0.010047 0.898027 -0.439941 -0.000453 0.004827 0.008823 0.999949
51562      0.069228 -0.010834 9.941910 0.003702 0.004371 0.001232 -0.439905 -0.897988 0.010039 0.898032 -0.439931 -0.000432 0.004804 0.008825 0.999950
51563      0.074616 -0.029963 9.939760 0.002865 0.004506 -0.000840 -0.439927 -0.897978 0.010028 0.898021 -0.439953 -0.000425 0.004793 0.008819 0.999950
51564      0.077199 -0.038106 9.928404 0.003055 0.004268 0.002735 -0.439892 -0.897995 0.010021 0.898038 -0.439918 -0.000414 0.004780 0.008817 0.999950
51565      0.073304 -0.029138 9.939772 0.001024 0.002789 0.000592 -0.439890 -0.897995 0.010039 0.898039 -0.439917 -0.000438 0.004809 0.008823 0.999950
51566      0.075512 -0.039855 9.948986 0.002864 0.004505 -0.000839 -0.439912 -0.897985 0.010028 0.898028 -0.439938 -0.000430 0.004798 0.008816 0.999950
51567      0.055169 -0.021672 9.929735 0.001572 0.004300 0.002166 -0.439885 -0.897998 0.010020 0.898041 -0.439911 -0.000444 0.004807 0.008803 0.999950
51568      0.054615 -0.021272 9.929739 0.003274 0.002388 0.000677 -0.439882 -0.897999 0.010044 0.898043 -0.439908 -0.000430 0.004804 0.008831 0.999949
51569      0.067481 -0.018965 9.951154 0.002168 0.005107 0.002202 -0.439855 -0.898013 0.010023 0.898056 -0.439881 -0.000434 0.004799 0.008810 0.999950
51570      0.077942 -0.003230 9.942790 0.003104 0.003563 0.001197 -0.439842 -0.898019 0.010028 0.898062 -0.439868 -0.000423 0.004790 0.008820 0.999950
51571      0.052208 -0.022337 9.950322 0.002387 0.003227 0.000144 -0.439847 -0.898017 0.010038 0.898060 -0.439873 -0.000423 0.004795 0.008829 0.999950
51572      0.069390 -0.023807 9.919241 0.003701 0.004370 0.001234 -0.439832 -0.898024 0.010029 0.898067 -0.439858 -0.000402 0.004772 0.008830 0.999950
51573      0.071605 -0.034455 9.928460 0.001024 0.002789 0.000592 -0.439833 -0.898024 0.010047 0.898067 -0.439859 -0.000425 0.004801 0.008836 0.999949
51574      0.081031 -0.023534 9.961237 0.004058 0.006118 -0.000766 -0.439850 -0.898015 0.010009 0.898059 -0.439876 -0.000398 0.004760 0.008814 0.999950
51575      0.063508 -0.016269 9.951185 0.001860 0.002654 0.002665 -0.439818 -0.898031 0.010029 0.898074 -0.439844 -0.000407 0.004777 0.008828 0.999950
51576      0.046739 -0.006746 9.920557 0.002387 0.003227 0.000144 -0.439824 -0.898028 0.010040 0.898071 -0.439850 -0.000408 0.004782 0.008837 0.999950
51577      0.046041 -0.006316 9.920561 0.002814 0.005208 0.000701 -0.439821 -0.898030 0.010017 0.898073 -0.439846 -0.000401 0.004766 0.008820 0.999950
51578      0.058690 -0.004099 9.941983 0.001451 0.004770 0.001149 -0.439808 -0.898036 0.010001 0.898079 -0.439834 -0.000417 0.004774 0.008799 0.999950
51579      0.070175 -0.043024 9.937714 0.003700 0.004369 0.001235 -0.439797 -0.898041 0.009993 0.898084 -0.439823 -0.000396 0.004751 0.008800 0.999950
51580      0.086835 -0.046898 9.927217 0.002456 0.003460 0.002701 -0.439766 -0.898057 0.010000 0.898100 -0.439792 -0.000396 0.004753 0.008807 0.999950
51581      0.085601 -0.049034 9.947795 0.000684 0.005139 0.001634 -0.439751 -0.898064 0.009979 0.898107 -0.439777 -0.000424 0.004769 0.008775 0.999950
51582      0.058438 -0.013549 9.951220 0.004058 0.006116 -0.000764 -0.439767 -0.898057 0.009940 0.898099 -0.439792 -0.000397 0.004728 0.008753 0.999951
51583      0.058162 -0.010442 9.930655 0.004586 0.003529 0.001770 -0.439745 -0.898067 0.009945 0.898110 -0.439770 -0.000361 0.004698 0.008773 0.999950
51584      0.036937 0.003098 9.952507 0.001620 0.003595 0.000630 -0.439745 -0.898067 0.009950 0.898110 -0.439771 -0.000373 0.004711 0.008772 0.999950
51585      0.049002 -0.033557 9.927681 0.002098 0.004872 -0.000352 -0.439759 -0.898061 0.009933 0.898103 -0.439784 -0.000379 0.004709 0.008754 0.999951
51586      0.062188 -0.028829 9.928541 0.003580 0.004839 0.000219 -0.439761 -0.898060 0.009916 0.898102 -0.439786 -0.000359 0.004683 0.008748 0.999951
51587      0.083927 -0.057108 9.957070 0.003153 0.002857 -0.000338 -0.439777 -0.898052 0.009933 0.898095 -0.439802 -0.000346 0.004680 0.008769 0.999951
51588      0.092731 -0.025452 9.898344 0.003648 0.005073 0.002776 -0.439743 -0.898069 0.009913 0.898112 -0.439767 -0.000327 0.004653 0.008760 0.999951
51589      0.056648 -0.018604 9.939906 0.001927 0.006046 0.000169 -0.439751 -0.898065 0.009877 0.898108 -0.439775 -0.000335 0.004645 0.008724 0.999951
51590      0.038612 -0.013781 9.950400 0.003340 0.002620 0.003237 -0.439712 -0.898084 0.009898 0.898127 -0.439736 -0.000320 0.004640 0.008749 0.999951
51591      0.049295 0.001918 9.942034 0.001620 0.003594 0.000630 -0.439710 -0.898085 0.009903 0.898128 -0.439734 -0.000334 0.004654 0.008747 0.999951
51592      0.057013 -0.030910 9.969716 0.001569 0.004299 0.002169 -0.439687 -0.898096 0.009896 0.898139 -0.439712 -0.000348 0.004664 0.008735 0.999951
51593      0.070751 -0.023908 9.950010 0.002813 0.005206 0.000704 -0.439687 -0.898097 0.009873 0.898139 -0.439711 -0.000342 0.004648 0.008718 0.999951
51594      0.076209 -0.043147 9.947899 0.002505 0.002755 0.001165 -0.439676 -0.898102 0.009892 0.898144 -0.439701 -0.000340 0.004655 0.008735 0.999951
51595      0.083526 -0.018812 9.950881 0.002335 0.003930 0.001686 -0.439656 -0.898112 0.009890 0.898154 -0.439681 -0.000342 0.004656 0.008733 0.999951
51596      0.052107 -0.015911 9.939935 0.002335 0.003930 0.001686 -0.439636 -0.898122 0.009889 0.898164 -0.439660 -0.000344 0.004656 0.008730 0.999951
51597      0.074780 -0.039504 9.927347 0.003461 0.005307 -0.000798 -0.439653 -0.898113 0.009864 0.898156 -0.439678 -0.000326 0.004629 0.008716 0.999951
51598      0.047819 -0.003982 9.930714 0.001620 0.003594 0.000631 -0.439649 -0.898116 0.009868 0.898158 -0.439673 -0.000339 0.004643 0.008714 0.999951
51599      0.066728 -0.021397 9.950043 0.003050 0.004265 0.002741 -0.439617 -0.898131 0.009861 0.898174 -0.439641 -0.000329 0.004631 0.008713 0.999951
51600      0.066566 -0.018641 9.929477 0.001568 0.004298 0.002170 -0.439593 -0.898143 0.009854 0.898185 -0.439618 -0.000343 0.004640 0.008700 0.999951
51601      0.065392 -0.020690 9.950054 0.002386 0.003224 0.000148 -0.439596 -0.898142 0.009864 0.898184 -0.439620 -0.000343 0.004645 0.008709 0.999951
51602      0.088270 -0.044314 9.937478 0.003101 0.003560 0.001203 -0.439582 -0.898148 0.009868 0.898190 -0.439607 -0.000331 0.004636 0.008718 0.999951
51603      0.067445 -0.028454 9.938725 0.002164 0.005104 0.002207 -0.439558 -0.898160 0.009848 0.898202 -0.439582 -0.000336 0.004631 0.008697 0.999951
51604      0.080686 -0.023830 9.939599 0.002334 0.003929 0.001687 -0.439541 -0.898169 0.009846 0.898211 -0.439565 -0.000337 0.004631 0.008696 0.999951
51605      0.063093 -0.016584 9.929503 0.003409 0.006011 0.000743 -0.439540 -0.898169 0.009811 0.898211 -0.439564 -0.000321 0.004601 0.008671 0.999952
51606      0.047964 -0.022750 9.949210 0.002145 0.001008 0.003166 -0.439501 -0.898188 0.009858 0.898230 -0.439525 -0.000325 0.004625 0.008712 0.999951
51607      0.044671 -0.011315 9.939978 0.002812 0.005205 0.000706 -0.439501 -0.898188 0.009836 0.898230 -0.439525 -0.000319 0.004610 0.008695 0.999952
51608      0.046718 -0.021974 9.949218 0.001619 0.003593 0.000632 -0.439495 -0.898191 0.009840 0.898233 -0.439520 -0.000332 0.004623 0.008693 0.999952
51609      0.069529 -0.045678 9.936660 0.002982 0.004029 0.000186 -0.439505 -0.898186 0.009838 0.898228 -0.439529 -0.000323 0.004614 0.008695 0.999952
51610      0.066094 -0.034215 9.927429 0.002334 0.003928 0.001688 -0.439487 -0.898195 0.009837 0.898237 -0.439511 -0.000324 0.004615 0.008693 0.999952
51611      0.096226 -0.036408 9.938419 0.001619 0.003593 0.000632 -0.439490 -0.898193 0.009842 0.898235 -0.439514 -0.000337 0.004629 0.008692 0.999952
51612      0.072831 -0.009669 9.930407 0.001855 0.002652 0.002669 -0.439459 -0.898209 0.009863 0.898251 -0.439483 -0.000347 0.004646 0.008706 0.999951
51613      0.047175 -0.028838 9.937902 0.002504 0.002753 0.001168 -0.439448 -0.898214 0.009881 0.898256 -0.439472 -0.000346 0.004653 0.008723 0.999951
51614      0.036494 -0.002420 9.971905 0.002812 0.005204 0.000707 -0.439444 -0.898216 0.009858 0.898258 -0.439468 -0.000340 0.004638 0.008706 0.999951
51615      0.056798 -0.012555 9.929547 0.004057 0.006110 -0.000757 -0.439466 -0.898206 0.009822 0.898247 -0.439490 -0.000313 0.004598 0.008685 0.999952
51616      0.058804 -0.023098 9.938794 0.001737 0.003122 0.001651 -0.439447 -0.898215 0.009833 0.898257 -0.439471 -0.000325 0.004613 0.008690 0.999952
51617      0.046929 -0.038109 9.947162 0.001448 0.004767 0.001153 -0.439437 -0.898220 0.009818 0.898262 -0.439461 -0.000341 0.004621 0.008669 0.999952
51618      0.091484 -0.033714 9.938473 0.002215 0.004398 0.000670 -0.439439 -0.898219 0.009810 0.898260 -0.439464 -0.000344 0.004620 0.008661 0.999952
51619      0.090757 -0.033226 9.938481 0.003696 0.004364 0.001243 -0.439426 -0.898225 0.009801 0.898267 -0.439450 -0.000323 0.004597 0.008662 0.999952
51620      0.072698 -0.028204 9.948939 0.003696 0.004364 0.001244 -0.439414 -0.898232 0.009792 0.898273 -0.439437 -0.000302 0.004575 0.008663 0.999952
51621      0.066378 -0.005801 9.930456 0.000681 0.005136 0.001637 -0.439399 -0.898239 0.009772 0.898280 -0.439423 -0.000332 0.004592 0.008632 0.999952
51622      0.037544 -0.013891 9.928697 0.004292 0.005169 0.001282 -0.439389 -0.898244 0.009750 0.898286 -0.439412 -0.000301 0.004554 0.008626 0.999952
51623      0.053577 -0.020050 9.938830 0.003100 0.003558 0.001207 -0.439379 -0.898249 0.009755 0.898290 -0.439403 -0.000289 0.004545 0.008636 0.999952
51624      0.075841 -0.046060 9.946886 0.002268 0.003692 -0.000868 -0.439399 -0.898239 0.009757 0.898281 -0.439422 -0.000291 0.004549 0.008637 0.999952
51625      0.100389 -0.026169 9.939414 0.002215 0.004397 0.000671 -0.439395 -0.898241 0.009748 0.898282 -0.439418 -0.000295 0.004548 0.008627 0.999952
51626      0.092475 -0.047304 9.915886 0.003217 0.003088 0.002226 -0.439367 -0.898255 0.009760 0.898296 -0.439390 -0.000282 0.004542 0.008644 0.999952
51627      0.092978 -0.005595 9.941505 0.002161 0.005102 0.002211 -0.439341 -0.898267 0.009740 0.898309 -0.439365 -0.000286 0.004536 0.008623 0.999953
51628      0.061361 -0.002783 9.930489 0.001394 0.005471 0.002693 -0.439307 -0.898284 0.009712 0.898325 -0.439331 -0.000303 0.004539 0.008591 0.999953
51629      0.043067 0.001909 9.940930 0.001926 0.006041 0.000174 -0.439312 -0.898282 0.009676 0.898323 -0.439335 -0.000312 0.004531 0.008555 0.999953
51630      0.034390 -0.021609 9.937972 0.003099 0.003557 0.001208 -0.439306 -0.898285 0.009681 0.898326 -0.439329 -0.000300 0.004522 0.008565 0.999953
51631      0.053839 -0.036662 9.936795 0.001565 0.004296 0.002173 -0.439279 -0.898299 0.009673 0.898339 -0.439302 -0.000314 0.004532 0.008552 0.999953
51632      0.097772 -0.034521 9.948725 0.003460 0.005302 -0.000791 -0.439295 -0.898291 0.009649 0.898332 -0.439318 -0.000297 0.004506 0.008537 0.999953
51633      0.080230 -0.027336 9.938590 0.001564 0.004296 0.002174 -0.439270 -0.898303 0.009642 0.898344 -0.439293 -0.000312 0.004516 0.008525 0.999953
51634      0.054952 -0.044117 9.925490 0.003099 0.003557 0.001209 -0.439259 -0.898309 0.009647 0.898349 -0.439282 -0.000301 0.004509 0.008534 0.999953
51635      0.058793 -0.011015 9.939775 0.002928 0.004732 0.001730 -0.439239 -0.898319 0.009632 0.898359 -0.439262 -0.000294 0.004495 0.008524 0.999954
51636      0.057464 -0.012871 9.960354 0.002981 0.004026 0.000191 -0.439243 -0.898317 0.009629 0.898357 -0.439266 -0.000285 0.004486 0.008526 0.999954
51637      0.071363 -0.005727 9.940680 0.003695 0.004362 0.001248 -0.439232 -0.898322 0.009621 0.898362 -0.439255 -0.000264 0.004463 0.008527 0.999954
51638      0.056713 -0.009535 9.939789 0.001618 0.003590 0.000635 -0.439227 -0.898325 0.009625 0.898365 -0.439250 -0.000278 0.004478 0.008525 0.999954
51639      0.068318 -0.048533 9.935672 0.002918 0.003790 -0.002367 -0.439269 -0.898304 0.009626 0.898344 -0.439292 -0.000270 0.004471 0.008529 0.999954
51640      0.075020 -0.026554 9.959208 0.001735 0.003121 0.001654 -0.439256 -0.898310 0.009640 0.898351 -0.439279 -0.000282 0.004488 0.008536 0.999953
51641      0.078403 -0.032553 9.927323 0.002331 0.003926 0.001692 -0.439238 -0.898319 0.009639 0.898359 -0.439261 -0.000284 0.004489 0.008534 0.999954
51642      0.060433 -0.027677 9.937747 0.003098 0.003556 0.001210 -0.439226 -0.898325 0.009644 0.898365 -0.439249 -0.000273 0.004481 0.008544 0.999953
51643      0.056996 -0.016289 9.928492 0.001446 0.004765 0.001156 -0.439216 -0.898330 0.009628 0.898370 -0.439238 -0.000290 0.004489 0.008523 0.999954
51644      0.066285 -0.005339 9.961286 0.002981 0.004025 0.000192 -0.439214 -0.898331 0.009624 0.898371 -0.439236 -0.000280 0.004479 0.008523 0.999954
51645      0.044330 -0.030630 9.936862 0.003694 0.004361 0.001249 -0.439201 -0.898338 0.009616 0.898378 -0.439223 -0.000260 0.004457 0.008524 0.999954
51646      0.082417 -0.008754 9.950883 0.001905 0.001946 0.001134 -0.439194 -0.898340 0.009648 0.898381 -0.439217 -0.000269 0.004479 0.008550 0.999953
51647      0.074484 -0.029860 9.927362 0.004056 0.006104 -0.000750 -0.439214 -0.898331 0.009611 0.898371 -0.439237 -0.000241 0.004438 0.008528 0.999954
51648      0.059574 -0.033647 9.926467 0.001508 0.005001 0.003714 -0.439164 -0.898356 0.009591 0.898396 -0.439186 -0.000257 0.004443 0.008504 0.999954
51649      0.069453 -0.020354 9.938688 0.002981 0.004025 0.000193 -0.439167 -0.898355 0.009588 0.898395 -0.439189 -0.000248 0.004433 0.008505 0.999954
51650      0.072190 -0.028531 9.927383 0.003097 0.003556 0.001212 -0.439156 -0.898360 0.009593 0.898400 -0.439178 -0.000236 0.004425 0.008515 0.999954
51651      0.068174 -0.019467 9.938698 0.001562 0.004295 0.002175 -0.439129 -0.898373 0.009585 0.898413 -0.439152 -0.000250 0.004434 0.008502 0.999954
51652      0.081481 -0.015026 9.939610 0.000849 0.003959 0.001118 -0.439121 -0.898377 0.009584 0.898417 -0.439144 -0.000277 0.004457 0.008489 0.999954
51653      0.052748 -0.023266 9.937802 0.002158 0.005100 0.002214 -0.439099 -0.898388 0.009563 0.898428 -0.439122 -0.000280 0.004451 0.008469 0.999954
51654      0.048723 -0.014146 9.949115 0.003152 0.002850 -0.000327 -0.439109 -0.898383 0.009580 0.898423 -0.439131 -0.000268 0.004448 0.008489 0.999954
51655      0.080038 -0.011397 9.919053 0.004289 0.005165 0.001290 -0.439097 -0.898389 0.009558 0.898429 -0.439119 -0.000237 0.004410 0.008483 0.999954
51656      0.067572 -0.028520 9.947992 0.001254 0.001846 0.002636 -0.439064 -0.898404 0.009591 0.898445 -0.439087 -0.000256 0.004441 0.008504 0.999954
51657      0.084421 -0.032729 9.937600 0.001562 0.004295 0.002176 -0.439043 -0.898415 0.009584 0.898455 -0.439065 -0.000271 0.004451 0.008492 0.999954
51658      0.063683 -0.016951 9.938733 0.002446 0.003456 0.002714 -0.439005 -0.898433 0.009590 0.898474 -0.439027 -0.000270 0.004453 0.008498 0.999954
51659      0.031818 -0.016343 9.948220 0.002501 0.002750 0.001174 -0.438992 -0.898440 0.009608 0.898480 -0.439014 -0.000269 0.004460 0.008514 0.999954
51660      0.065379 -0.027089 9.948011 0.003097 0.003555 0.001213 -0.438982 -0.898444 0.009613 0.898485 -0.439005 -0.000258 0.004452 0.008524 0.999954
51661      0.096072 -0.026853 9.938537 0.002213 0.004393 0.000676 -0.438979 -0.898446 0.009604 0.898486 -0.439002 -0.000262 0.004451 0.008514 0.999954
51662      0.049995 -0.030348 9.947109 0.004344 0.004458 -0.000248 -0.438990 -0.898441 0.009594 0.898481 -0.439012 -0.000230 0.004418 0.008519 0.999954
51663      0.083142 -0.040989 9.946914 0.002520 0.006841 0.000217 -0.438995 -0.898439 0.009545 0.898479 -0.439017 -0.000229 0.004396 0.008475 0.999954
51664      0.062251 -0.025244 9.948036 0.001020 0.002784 0.000598 -0.438996 -0.898438 0.009563 0.898478 -0.439018 -0.000252 0.004425 0.008482 0.999954
51665      0.065037 -0.033719 9.936738 0.001561 0.004294 0.002177 -0.438970 -0.898451 0.009556 0.898491 -0.438992 -0.000267 0.004435 0.008469 0.999954
51666      0.086836 -0.002861 9.920030 0.002864 0.004492 -0.000824 -0.438985 -0.898443 0.009545 0.898483 -0.439008 -0.000261 0.004424 0.008461 0.999954
51667      0.066308 -0.043993 9.946025 0.001561 0.004294 0.002177 -0.438963 -0.898455 0.009538 0.898494 -0.438985 -0.000275 0.004435 0.008449 0.999954
51668      0.072956 -0.021987 9.969550 0.003151 0.002848 -0.000325 -0.438976 -0.898448 0.009555 0.898488 -0.438998 -0.000262 0.004430 0.008470 0.999954
51669      0.076383 -0.027792 9.937680 0.003692 0.004358 0.001254 -0.438959 -0.898456 0.009545 0.898496 -0.438981 -0.000242 0.004407 0.008470 0.999954
51670      0.068913 -0.009980 9.960285 0.001560 0.004294 0.002177 -0.438934 -0.898469 0.009538 0.898508 -0.438956 -0.000256 0.004417 0.008457 0.999954
51671      0.057508 -0.022671 9.948071 0.001328 0.005231 0.000140 -0.438939 -0.898467 0.009514 0.898506 -0.438961 -0.000274 0.004422 0.008429 0.999955
51672      0.060193 -0.031108 9.936777 0.001732 0.003119 0.001657 -0.438920 -0.898476 0.009527 0.898515 -0.438943 -0.000286 0.004439 0.008434 0.999955
51673      0.052923 -0.013320 9.959377 0.003211 0.003085 0.002235 -0.438890 -0.898490 0.009538 0.898530 -0.438912 -0.000273 0.004432 0.008451 0.999954
51674      0.050268 0.000508 9.929525 0.002979 0.004022 0.000197 -0.438892 -0.898489 0.009535 0.898529 -0.438914 -0.000264 0.004422 0.008452 0.999955
51675      0.069071 -0.016879 9.949012 0.001616 0.003588 0.000638 -0.438888 -0.898491 0.009539 0.898531 -0.438910 -0.000277 0.004436 0.008449 0.999954
51676      0.068374 -0.016449 9.949017 0.003575 0.004826 0.000236 -0.438891 -0.898490 0.009523 0.898530 -0.438913 -0.000258 0.004412 0.008443 0.999955
51677      0.070267 -0.027100 9.958304 0.000676 0.005132 0.001640 -0.438873 -0.898499 0.009502 0.898538 -0.438895 -0.000288 0.004429 0.008411 0.999955
51678      0.072985 -0.035476 9.947015 0.003151 0.002847 -0.000323 -0.438885 -0.898493 0.009519 0.898532 -0.438907 -0.000276 0.004426 0.008432 0.999955
51679      0.066430 -0.015368 9.949032 0.001847 0.002650 0.002677 -0.438851 -0.898509 0.009538 0.898549 -0.438874 -0.000285 0.004442 0.008445 0.999954
51680      0.069058 -0.023516 9.937744 0.004767 0.006434 0.000316 -0.438850 -0.898510 0.009494 0.898550 -0.438872 -0.000247 0.004389 0.008423 0.999955
51681      0.057592 -0.035862 9.925530 0.002327 0.003923 0.001698 -0.438829 -0.898521 0.009493 0.898560 -0.438851 -0.000249 0.004389 0.008420 0.999955
51682      0.070926 -0.031187 9.926465 0.002979 0.004021 0.000198 -0.438833 -0.898518 0.009490 0.898558 -0.438855 -0.000241 0.004381 0.008422 0.999955
51683      0.063558 -0.013351 9.949054 0.002383 0.003217 0.000158 -0.438841 -0.898514 0.009502 0.898554 -0.438863 -0.000242 0.004387 0.008432 0.999955
51684      0.066248 -0.021496 9.937768 0.004286 0.005161 0.001297 -0.438833 -0.898518 0.009482 0.898558 -0.438855 -0.000211 0.004351 0.008427 0.999955
51685      0.051602 -0.025172 9.936842 0.002499 0.002748 0.001178 -0.438823 -0.898523 0.009500 0.898563 -0.438845 -0.000210 0.004358 0.008444 0.999955
51686      0.050882 -0.024861 9.936847 0.001271 0.005936 0.001680 -0.438804 -0.898533 0.009465 0.898572 -0.438826 -0.000229 0.004359 0.008405 0.999955
51687      0.064146 -0.020259 9.937784 0.003151 0.002846 -0.000322 -0.438813 -0.898529 0.009482 0.898568 -0.438834 -0.000219 0.004358 0.008424 0.999955
51688      0.062810 -0.022120 9.958367 0.002154 0.005097 0.002219 -0.438783 -0.898543 0.009461 0.898582 -0.438805 -0.000224 0.004353 0.008403 0.999955
51689      0.082926 -0.034899 9.936730 0.002498 0.002748 0.001178 -0.438773 -0.898548 0.009479 0.898587 -0.438795 -0.000223 0.004359 0.008420 0.999955
51690      0.051576 -0.031935 9.925577 0.002806 0.005195 0.000720 -0.438775 -0.898547 0.009458 0.898586 -0.438796 -0.000217 0.004345 0.008404 0.999955
51691      0.075443 -0.014398 9.938741 0.001615 0.003587 0.000640 -0.438768 -0.898550 0.009462 0.898590 -0.438790 -0.000231 0.004360 0.008401 0.999955
51692      0.074164 -0.016127 9.959323 0.005226 0.003615 0.000298 -0.438769 -0.898550 0.009465 0.898589 -0.438790 -0.000184 0.004319 0.008425 0.999955
51693      0.063521 -0.026282 9.926529 0.000674 0.005131 0.001641 -0.438751 -0.898559 0.009444 0.898598 -0.438772 -0.000213 0.004335 0.008393 0.999955
51694      0.057672 -0.060896 9.932896 0.003151 0.002845 -0.000321 -0.438765 -0.898552 0.009460 0.898592 -0.438786 -0.000199 0.004330 0.008414 0.999955
51695      0.062060 -0.025497 9.926541 0.002518 0.006837 0.000221 -0.438765 -0.898552 0.009409 0.898591 -0.438786 -0.000196 0.004305 0.008369 0.999956
51696      0.074608 -0.023130 9.948064 0.002613 0.002280 0.002199 -0.438743 -0.898563 0.009436 0.898602 -0.438764 -0.000194 0.004314 0.008395 0.999955
51697      0.090826 -0.029475 9.958304 0.002440 0.003454 0.002719 -0.438708 -0.898580 0.009442 0.898619 -0.438729 -0.000192 0.004315 0.008401 0.999955
51698      0.084837 -0.007152 9.939720 0.001615 0.003586 0.000641 -0.438706 -0.898581 0.009447 0.898620 -0.438728 -0.000206 0.004330 0.008399 0.999955
51699      0.059598 -0.023942 9.926560 0.003036 0.004258 0.002760 -0.438667 -0.898600 0.009439 0.898639 -0.438689 -0.000196 0.004316 0.008396 0.999955
51700      0.054695 -0.017107 9.958424 0.002038 0.005564 0.001201 -0.438656 -0.898606 0.009410 0.898645 -0.438677 -0.000201 0.004309 0.008368 0.999956
51701      0.068618 -0.010106 9.938796 0.003746 0.003648 -0.000279 -0.438672 -0.898598 0.009415 0.898637 -0.438693 -0.000180 0.004292 0.008382 0.999956
51702      0.073996 -0.029374 9.936819 0.001499 0.004999 0.003721 -0.438620 -0.898623 0.009395 0.898662 -0.438641 -0.000197 0.004298 0.008357 0.999956
51703      0.044586 -0.039760 9.955511 0.002921 0.003780 -0.002358 -0.438668 -0.898600 0.009398 0.898639 -0.438689 -0.000188 0.004292 0.008363 0.999956
51704      0.023967 -0.023898 9.956549 0.001844 0.002650 0.002680 -0.438636 -0.898616 0.009418 0.898655 -0.438657 -0.000196 0.004307 0.008377 0.999956
51705      0.061499 -0.041227 9.924610 0.002152 0.005096 0.002221 -0.438601 -0.898633 0.009395 0.898671 -0.438623 -0.000201 0.004302 0.008354 0.999956
51706      0.074069 -0.038968 9.946142 0.001614 0.003586 0.000641 -0.438601 -0.898633 0.009399 0.898672 -0.438622 -0.000214 0.004315 0.008353 0.999956
51707      0.087507 -0.034339 9.947096 0.003207 0.003083 0.002241 -0.438579 -0.898643 0.009413 0.898682 -0.438600 -0.000200 0.004308 0.008372 0.999956
51708      0.087565 -0.031552 9.926526 0.002920 0.004725 0.001742 -0.438556 -0.898655 0.009397 0.898693 -0.438577 -0.000190 0.004292 0.008361 0.999956
51709      0.097538 -0.018165 9.938758 0.002497 0.002747 0.001181 -0.438541 -0.898662 0.009413 0.898701 -0.438562 -0.000189 0.004298 0.008377 0.999956
51710      0.083083 -0.021929 9.937813 0.003151 0.002844 -0.000318 -0.438551 -0.898657 0.009430 0.898696 -0.438572 -0.000176 0.004294 0.008397 0.999956
51711      0.065812 -0.014659 9.927565 0.003034 0.004257 0.002762 -0.438521 -0.898672 0.009424 0.898711 -0.438542 -0.000166 0.004282 0.008397 0.999956
51712      0.046984 -0.011968 9.958471 0.002863 0.004486 -0.000817 -0.438537 -0.898664 0.009413 0.898703 -0.438558 -0.000159 0.004270 0.008390 0.999956
51713      0.038991 -0.033276 9.934975 0.001327 0.005227 0.000143 -0.438543 -0.898661 0.009390 0.898700 -0.438564 -0.000177 0.004277 0.008361 0.999956
51714      0.035575 -0.021921 9.925674 0.003092 0.003550 0.001222 -0.438533 -0.898666 0.009395 0.898705 -0.438554 -0.000164 0.004268 0.008371 0.999956
51715      0.034164 -0.023768 9.946256 0.002095 0.004856 -0.000337 -0.438542 -0.898662 0.009378 0.898700 -0.438563 -0.000170 0.004266 0.008353 0.999956
51716      0.144283 -0.031097 9.928437 0.000191 0.003859 0.002621 -0.438508 -0.898678 0.009377 0.898717 -0.438529 -0.000208 0.004299 0.008336 0.999956
51717      0.126206 -0.026296 9.938763 0.003687 0.004353 0.001264 -0.438499 -0.898683 0.009369 0.898722 -0.438519 -0.000186 0.004276 0.008339 0.999956
51718      0.063496 -0.022831 9.936909 0.004570 0.003514 0.001804 -0.438481 -0.898692 0.009375 0.898731 -0.438501 -0.000149 0.004245 0.008360 0.999956
51719      0.071414 0.003872 9.919255 0.001496 0.004998 0.003723 -0.438436 -0.898714 0.009357 0.898752 -0.438456 -0.000165 0.004251 0.008337 0.999956
51720      0.062794 -0.019750 9.916341 0.002268 0.003681 -0.000856 -0.438458 -0.898703 0.009360 0.898742 -0.438478 -0.000167 0.004254 0.008339 0.999956
51721      0.076216 -0.015137 9.917304 0.002382 0.003213 0.000163 -0.438459 -0.898702 0.009371 0.898741 -0.438480 -0.000170 0.004262 0.008348 0.999956
51722      0.060873 -0.021134 9.936929 0.003687 0.004353 0.001265 -0.438446 -0.898709 0.009363 0.898748 -0.438466 -0.000151 0.004241 0.008349 0.999956
51723      0.006803 -0.048552 9.942403 0.002150 0.005094 0.002224 -0.438422 -0.898721 0.009344 0.898759 -0.438442 -0.000157 0.004238 0.008329 0.999956
51724      -0.007878 -0.052405 9.941444 0.002382 0.003213 0.000164 -0.438424 -0.898719 0.009354 0.898758 -0.438445 -0.000158 0.004243 0.008338 0.999956
51725      0.075372 -0.026430 9.947220 0.004936 0.005252 -0.000193 -0.438437 -0.898714 0.009331 0.898752 -0.438457 -0.000114 0.004194 0.008336 0.999956
51726      0.094856 -0.041340 9.946236 0.001900 0.001942 0.001143 -0.438423 -0.898720 0.009362 0.898759 -0.438443 -0.000124 0.004216 0.008360 0.999956
51727      0.164301 -0.019796 9.951060 0.003032 0.004256 0.002765 -0.438395 -0.898734 0.009356 0.898773 -0.438415 -0.000111 0.004202 0.008360 0.999956
51728      0.114688 -0.014621 9.970710 0.002035 0.005561 0.001205 -0.438384 -0.898740 0.009328 0.898778 -0.438404 -0.000119 0.004196 0.008331 0.999956
51729      0.061296 0.016889 9.930562 0.001072 0.003020 0.003162 -0.438338 -0.898762 0.009340 0.898800 -0.438358 -0.000142 0.004222 0.008333 0.999956
51730      0.012654 0.024371 9.929615 0.004455 0.003980 0.000787 -0.438340 -0.898761 0.009339 0.898799 -0.438360 -0.000106 0.004190 0.008348 0.999956
51731      0.003353 -0.001384 9.947281 0.000844 0.003955 0.001123 -0.438333 -0.898764 0.009338 0.898803 -0.438353 -0.000132 0.004212 0.008335 0.999956
51732      0.017574 -0.051575 9.952707 0.001613 0.003584 0.000644 -0.438331 -0.898765 0.009344 0.898804 -0.438351 -0.000147 0.004228 0.008334 0.999956
51733      0.069059 -0.064525 9.921831 0.004936 0.005250 -0.000191 -0.438336 -0.898763 0.009319 0.898802 -0.438356 -0.000105 0.004179 0.008330 0.999957
51734      0.112915 -0.062416 9.934065 0.000076 0.004326 0.001602 -0.438314 -0.898774 0.009309 0.898812 -0.438334 -0.000144 0.004210 0.008304 0.999957
51735      0.148211 -0.029766 9.938924 0.003150 0.002841 -0.000314 -0.438331 -0.898765 0.009328 0.898804 -0.438351 -0.000133 0.004209 0.008326 0.999956
51736      0.105547 0.014766 9.910976 0.000898 0.004194 0.003683 -0.438288 -0.898786 0.009324 0.898825 -0.438308 -0.000158 0.004229 0.008311 0.999957
51737      0.053267 0.030884 9.921268 0.003512 0.005525 0.001788 -0.438274 -0.898794 0.009297 0.898832 -0.438294 -0.000139 0.004200 0.008296 0.999957
51738      -0.007551 0.020952 9.949219 0.002495 0.002745 0.001185 -0.438267 -0.898797 0.009317 0.898835 -0.438287 -0.000138 0.004207 0.008314 0.999957
51739      -0.009914 -0.022238 9.944371 0.002923 0.003775 -0.002353 -0.438312 -0.898775 0.009320 0.898813 -0.438332 -0.000130 0.004202 0.008320 0.999957
51740      0.066948 -0.072722 9.931203 0.002690 0.005656 -0.000292 -0.438324 -0.898769 0.009291 0.898807 -0.438344 -0.000127 0.004187 0.008295 0.999957
51741      0.082908 -0.079170 9.941507 0.001017 0.002780 0.000603 -0.438323 -0.898769 0.009309 0.898808 -0.438343 -0.000150 0.004215 0.008301 0.999957
51742      0.138424 -0.062037 9.945413 0.001839 0.002649 0.002684 -0.438287 -0.898787 0.009329 0.898825 -0.438308 -0.000162 0.004235 0.008314 0.999956
51743      0.104613 -0.048112 9.924824 0.003256 0.003320 0.004807 -0.438225 -0.898817 0.009338 0.898856 -0.438245 -0.000148 0.004225 0.008329 0.999956
51744      0.062200 0.035733 9.942837 0.002916 0.004721 0.001748 -0.438201 -0.898829 0.009323 0.898867 -0.438221 -0.000142 0.004213 0.008318 0.999957
51745      0.054636 0.053679 9.965349 0.002976 0.004014 0.000208 -0.438207 -0.898826 0.009321 0.898864 -0.438227 -0.000131 0.004203 0.008321 0.999957
51746      0.032863 0.028154 9.940886 0.001612 0.003583 0.000645 -0.438210 -0.898824 0.009327 0.898863 -0.438230 -0.000144 0.004217 0.008320 0.999956
51747      0.017040 -0.017106 9.914496 0.002689 0.005655 -0.000291 -0.438213 -0.898823 0.009295 0.898861 -0.438233 -0.000141 0.004200 0.008293 0.999957
51748      0.061708 -0.069388 9.931261 0.005109 0.004074 -0.000707 -0.438235 -0.898812 0.009293 0.898851 -0.438255 -0.000097 0.004160 0.008310 0.999957
51749      0.109068 -0.075822 9.932286 0.002207 0.004385 0.000687 -0.438236 -0.898812 0.009286 0.898850 -0.438256 -0.000101 0.004161 0.008302 0.999957
51750      0.108484 -0.075490 9.932295 0.001838 0.002649 0.002685 -0.438206 -0.898826 0.009306 0.898865 -0.438226 -0.000109 0.004176 0.008317 0.999957
51751      0.100230 -0.003008 9.950302 0.003028 0.004254 0.002769 -0.438169 -0.898844 0.009298 0.898883 -0.438189 -0.000098 0.004162 0.008315 0.999957
51752      0.073366 0.032565 9.953168 0.001551 0.004289 0.002186 -0.438146 -0.898856 0.009292 0.898894 -0.438166 -0.000114 0.004173 0.008303 0.999957
51753      0.036026 0.055256 9.943794 0.003858 0.003175 0.000751 -0.438146 -0.898856 0.009305 0.898894 -0.438166 -0.000090 0.004158 0.008325 0.999957
51754      0.031043 0.023169 9.929642 0.003149 0.002839 -0.000311 -0.438154 -0.898852 0.009321 0.898890 -0.438174 -0.000079 0.004155 0.008344 0.999957
51755      0.016533 -0.037524 9.953752 0.001499 0.004049 -0.000374 -0.438169 -0.898844 0.009318 0.898883 -0.438189 -0.000092 0.004166 0.008335 0.999957
51756      0.069966 -0.063918 9.952879 0.002863 0.004480 -0.000810 -0.438186 -0.898836 0.009308 0.898875 -0.438206 -0.000088 0.004157 0.008328 0.999957
51757      0.105113 -0.088105 9.982857 0.000669 0.005128 0.001645 -0.438168 -0.898845 0.009287 0.898884 -0.438188 -0.000118 0.004176 0.008296 0.999957
51758      0.117088 -0.068154 9.933363 0.002741 0.005894 0.002271 -0.438146 -0.898856 0.009255 0.898894 -0.438165 -0.000114 0.004158 0.008269 0.999957
51759      0.070272 -0.016954 9.937134 0.003436 0.001198 0.000189 -0.438157 -0.898850 0.009302 0.898889 -0.438177 -0.000097 0.004163 0.008319 0.999957
51760      0.082985 0.042471 9.933601 0.003683 0.004348 0.001272 -0.438138 -0.898860 0.009291 0.898898 -0.438157 -0.000077 0.004140 0.008318 0.999957
51761      0.010644 0.074231 9.944712 0.002145 0.005092 0.002229 -0.438107 -0.898875 0.009270 0.898913 -0.438127 -0.000082 0.004136 0.008297 0.999957
