// Start Time: Unknown
// Update Rate: 100.0Hz
// Filter Profile: human (46.1)
// Firmware Version: 4.4.0
PacketCounter	SampleTimeFine	Year	Month	Day	Second	Acc_X	Acc_Y	Acc_Z	Gyr_X	Gyr_Y	Gyr_Z	Quat_q0	Quat_q1	Quat_q2	Quat_q3
04097						4.707445	4.697718	7.265665	0.003258	-0.005507	-0.002823	-0.131224	-0.289821	-0.217187	-0.922829
04098						4.667387	4.677692	7.284879	-0.002577	0.002491	-0.001265	-0.129709	-0.289078	-0.217478	-0.923208
04099						4.680539	4.658568	7.292087	0.003437	-0.004121	-0.001997	-0.129718	-0.289097	-0.217494	-0.923197
04100						4.680738	4.658828	7.291793	0.001885	-0.003128	-0.000795	-0.129721	-0.289117	-0.217502	-0.923188
04101						4.700939	4.669100	7.281907	0.001193	-0.003765	-0.002854	-0.129737	-0.289132	-0.217509	-0.923180
04102						4.676545	4.647971	7.270114	0.000667	-0.004269	0.000815	-0.129737	-0.289153	-0.217508	-0.923174
04103						4.701286	4.669339	7.281530	0.000346	-0.000881	-0.004496	-0.129758	-0.289152	-0.217515	-0.923169
04104						4.676675	4.648335	7.269797	0.001013	-0.005151	-0.003681	-0.129779	-0.289171	-0.217520	-0.923159
04105						4.696928	4.658549	7.259912	0.000154	-0.003520	-0.000419	-0.129784	-0.289187	-0.217519	-0.923153
04106						4.688419	4.688876	7.273870	-0.005360	-0.001310	-0.004601	-0.129814	-0.289183	-0.217496	-0.923156
04107						4.701644	4.669492	7.281201	-0.001397	-0.002527	0.000783	-0.129815	-0.289195	-0.217487	-0.923154
04108						4.681746	4.659273	7.290862	-0.001731	-0.000392	0.000376	-0.129816	-0.289194	-0.217474	-0.923158
04109						4.664074	4.667264	7.262358	0.000334	-0.002135	0.000407	-0.129816	-0.289204	-0.217473	-0.923154
04110						4.722162	4.679148	7.271500	-0.004859	-0.003312	0.001536	-0.129819	-0.289213	-0.217440	-0.923159
04111						4.695406	4.639574	7.298110	-0.000693	-0.000637	-0.002060	-0.129830	-0.289214	-0.217440	-0.923157
04112						4.715674	4.649682	7.288280	0.001001	-0.006404	0.001222	-0.129829	-0.289241	-0.217429	-0.923152
04113						4.662884	4.648854	7.299989	0.002218	-0.005263	-0.000388	-0.129833	-0.289266	-0.217436	-0.923142
04114						4.703307	4.669140	7.280352	-0.000205	-0.006292	-0.002071	-0.129848	-0.289285	-0.217420	-0.923137
04115						4.685747	4.677472	7.251557	0.005347	-0.002343	-0.001548	-0.129850	-0.289298	-0.217445	-0.923127
04116						4.670588	4.678861	7.282076	0.002911	-0.004626	0.001672	-0.129841	-0.289315	-0.217437	-0.923125
04117						4.688849	4.670878	7.310198	0.001000	-0.006404	0.001222	-0.129841	-0.289346	-0.217436	-0.923115
04118						4.697858	4.640626	7.295863	0.004642	-0.004234	0.001296	-0.129831	-0.289358	-0.217435	-0.923113
04119						4.706849	4.610530	7.281440	0.004282	-0.007006	-0.000357	-0.129834	-0.289393	-0.217451	-0.923098
04120						4.705507	4.670788	7.277873	0.008961	-0.005080	-0.002720	-0.129836	-0.289406	-0.217466	-0.923090
04121						4.692682	4.690448	7.270107	0.003604	-0.003989	0.003732	-0.129818	-0.289430	-0.217475	-0.923083
04122						4.681662	4.650443	7.265238	0.008420	-0.009238	-0.005198	-0.129836	-0.289458	-0.217488	-0.923069
04123						4.731343	4.693378	7.287778	0.000667	-0.004270	0.000815	-0.129836	-0.289479	-0.217487	-0.923062
04124						4.686863	4.662227	7.285684	0.003101	-0.001988	-0.002405	-0.129841	-0.289471	-0.217473	-0.923067
04125						4.702573	4.661314	7.254481	0.000820	-0.007791	0.000397	-0.129847	-0.289508	-0.217471	-0.923055
04126						4.687449	4.662545	7.285103	0.000857	-0.001631	-0.003262	-0.129857	-0.289497	-0.217446	-0.923063
04127						4.687385	4.662748	7.285015	0.001037	-0.000245	-0.002436	-0.129867	-0.289496	-0.217454	-0.923060
04128						4.694374	4.692076	7.267964	-0.001064	-0.004662	0.001192	-0.129864	-0.289502	-0.217414	-0.923068
04129						4.703185	4.661596	7.253903	0.000513	-0.000749	0.001234	-0.129859	-0.289507	-0.217414	-0.923068
04130						4.690172	4.680729	7.246593	-0.004695	-0.005581	-0.003783	-0.129882	-0.289509	-0.217360	-0.923076
04131						4.721302	4.653304	7.282324	-0.001731	-0.000392	0.000377	-0.129884	-0.289510	-0.217351	-0.923078
04132						4.701373	4.642940	7.292126	-0.005192	-0.001177	0.001131	-0.129883	-0.289496	-0.217290	-0.923097
04133						4.675145	4.680959	7.277802	-0.005192	-0.001177	0.001131	-0.129887	-0.289499	-0.217264	-0.923101
04134						4.708513	4.671356	7.275565	-0.004498	-0.000540	0.003190	-0.129867	-0.289474	-0.217188	-0.923130
04135						4.677211	4.620277	7.281181	-0.006923	-0.001570	0.001508	-0.129872	-0.289479	-0.217153	-0.923136
04136						4.708814	4.670471	7.275938	-0.001731	-0.000392	0.000377	-0.129872	-0.289461	-0.217110	-0.923152
04137						4.682031	4.630958	7.302577	-0.001911	-0.001779	-0.000449	-0.129879	-0.289467	-0.217100	-0.923151
04138						4.709191	4.670396	7.275742	0.001856	-0.008036	-0.002041	-0.129879	-0.289481	-0.217059	-0.923156
04139						4.697944	4.630059	7.271231	-0.000694	-0.000637	-0.002059	-0.129890	-0.289481	-0.217058	-0.923155
04140						4.709543	4.670671	7.275337	0.001523	-0.005901	-0.002448	-0.129908	-0.289493	-0.217034	-0.923154
04141						4.689777	4.660794	7.284726	0.001884	-0.003129	-0.000796	-0.129913	-0.289508	-0.217042	-0.923147
04142						4.676805	4.680122	7.277273	0.000153	-0.003521	-0.000419	-0.129918	-0.289502	-0.217000	-0.923158
04143						4.690165	4.660901	7.284407	0.000514	-0.000749	0.001233	-0.129912	-0.289507	-0.217000	-0.923157
04144						4.703604	4.641598	7.291541	-0.001064	-0.004663	0.001192	-0.129896	-0.289521	-0.216955	-0.923166
04145						4.690799	4.660848	7.284033	0.002216	-0.005264	-0.000389	-0.129900	-0.289547	-0.216962	-0.923155
04146						4.679698	4.620550	7.279409	0.002216	-0.005264	-0.000389	-0.129908	-0.289548	-0.216933	-0.923161
04147						4.686957	4.650107	7.262038	0.004280	-0.007007	-0.000359	-0.129911	-0.289583	-0.216949	-0.923146
04148						4.692000	4.661607	7.282773	0.003947	-0.004872	-0.000766	-0.129904	-0.289581	-0.216916	-0.923155
04149						4.692342	4.661859	7.282392	0.002216	-0.005264	-0.000389	-0.129909	-0.289607	-0.216924	-0.923144
04150						4.699360	4.691335	7.265219	0.001550	-0.000994	-0.001203	-0.129918	-0.289589	-0.216900	-0.923154
04151						4.708027	4.660950	7.251176	-0.001398	-0.002528	0.000785	-0.129919	-0.289602	-0.216892	-0.923152
04152						4.699722	4.691140	7.265111	-0.003128	-0.002920	0.001162	-0.129909	-0.289589	-0.216829	-0.923172
04153						4.655289	4.659566	7.263294	-0.000522	-0.000504	0.003670	-0.129893	-0.289596	-0.216821	-0.923174
04154						4.713480	4.671509	7.272249	-0.001246	-0.006049	0.000366	-0.129903	-0.289581	-0.216766	-0.923190
04155						4.713898	4.671304	7.272110	-0.002615	-0.003669	0.002396	-0.129900	-0.289599	-0.216749	-0.923189
04156						4.674279	4.650861	7.291417	-0.002796	-0.005056	0.001570	-0.129881	-0.289595	-0.216682	-0.923209
04157						4.703277	4.630260	7.267654	-0.002796	-0.005056	0.001570	-0.129883	-0.289619	-0.216663	-0.923206
04158						4.686548	4.690780	7.295532	-0.003129	-0.002920	0.001162	-0.129915	-0.289602	-0.216626	-0.923215
04159						4.695364	4.660183	7.281517	-0.001579	-0.003914	-0.000041	-0.129922	-0.289619	-0.216617	-0.923211
04160						4.700158	4.671007	7.302849	-0.007256	0.000565	0.001104	-0.129916	-0.289565	-0.216530	-0.923249
04161						4.684208	4.618991	7.277497	-0.000884	-0.003277	0.002018	-0.129912	-0.289581	-0.216521	-0.923247
04162						4.695886	4.659158	7.281836	-0.005011	0.000209	0.001959	-0.129910	-0.289552	-0.216463	-0.923270
04163						4.687555	4.689297	7.295838	0.001541	-0.002248	0.003699	-0.129893	-0.289567	-0.216464	-0.923267
04164						4.709628	4.639402	7.289050	-0.004165	-0.002676	0.003599	-0.129903	-0.289540	-0.216411	-0.923287
04165						4.714514	4.650274	7.310292	-0.001912	-0.001779	-0.000448	-0.129910	-0.289546	-0.216402	-0.923286
04166						4.710012	4.638808	7.289180	-0.004498	-0.000541	0.003192	-0.129880	-0.289526	-0.216334	-0.923312
04167						4.692490	4.646544	7.260745	-0.000371	-0.004027	0.003251	-0.129870	-0.289547	-0.216325	-0.923309
04168						4.692687	4.646478	7.260661	-0.000695	-0.000637	-0.002059	-0.129900	-0.289488	-0.216283	-0.923333
04169						4.677547	4.647707	7.291333	0.001852	-0.008037	-0.002043	-0.129916	-0.289522	-0.216289	-0.923319
04170						4.713281	4.656822	7.250415	0.000151	-0.003522	-0.000419	-0.129951	-0.289484	-0.216259	-0.923333
04171						4.711348	4.638712	7.288378	0.000151	-0.003522	-0.000419	-0.129957	-0.289498	-0.216258	-0.923328
04172						4.678425	4.647996	7.290585	0.001519	-0.005902	-0.002450	-0.129983	-0.289483	-0.216230	-0.923336
04173						4.670203	4.678584	7.304239	0.002396	-0.003879	0.000436	-0.129983	-0.289500	-0.216238	-0.923329
04174						4.699103	4.658357	7.280274	0.000483	-0.005658	-0.000013	-0.129986	-0.289471	-0.216194	-0.923347
04175						4.681627	4.666358	7.251638	-0.000885	-0.003277	0.002018	-0.129983	-0.289485	-0.216185	-0.923346
04176						4.679718	4.648143	7.289662	0.000332	-0.002136	0.000407	-0.129974	-0.289469	-0.216158	-0.923358
04177						4.724618	4.679599	7.291228	0.000823	-0.006539	-0.004509	-0.130002	-0.289492	-0.216164	-0.923346
04178						4.680239	4.648337	7.289204	-0.000885	-0.003278	0.002018	-0.129989	-0.289479	-0.216127	-0.923360
04179						4.687549	4.677646	7.271951	0.003060	-0.008150	0.001249	-0.129989	-0.289517	-0.216134	-0.923347
04180						4.687906	4.677740	7.271661	-0.000182	-0.001386	-0.000826	-0.129962	-0.289484	-0.216088	-0.923372
04181						4.696551	4.647357	7.257599	0.000332	-0.002136	0.000407	-0.129962	-0.289491	-0.216086	-0.923370
04182						4.686047	4.659623	7.309597	0.000332	-0.002136	0.000407	-0.129947	-0.289481	-0.216058	-0.923382
04183						4.710145	4.628126	7.264565	0.000846	-0.002885	0.001640	-0.129941	-0.289493	-0.216057	-0.923379
04184						4.686636	4.659713	7.309162	0.002032	-0.006652	-0.001217	-0.129949	-0.289501	-0.216035	-0.923380
04185						4.707104	4.670056	7.298983	0.004276	-0.007009	-0.000363	-0.129952	-0.289532	-0.216050	-0.923367
04186						4.695990	4.629811	7.294337	0.002577	-0.002493	0.001261	-0.129903	-0.289518	-0.216013	-0.923387
04187						4.718347	4.658085	7.246307	0.000332	-0.002136	0.000407	-0.129903	-0.289525	-0.216011	-0.923385
04188						4.687889	4.660380	7.307933	0.001699	-0.004516	-0.001624	-0.129911	-0.289514	-0.215996	-0.923391
04189						4.710281	4.688703	7.259845	0.000150	-0.003522	-0.000419	-0.129917	-0.289526	-0.215993	-0.923387
04190						4.676795	4.619965	7.303387	-0.001731	-0.000393	0.000379	-0.129917	-0.289496	-0.215965	-0.923403
04191						4.693003	4.671550	7.328849	-0.000182	-0.001387	-0.000826	-0.129922	-0.289497	-0.215962	-0.923402
04192						4.703719	4.659224	7.276736	-0.001731	-0.000393	0.000379	-0.129935	-0.289455	-0.215930	-0.923421
04193						4.683857	4.649094	7.286397	0.000150	-0.003522	-0.000419	-0.129941	-0.289467	-0.215927	-0.923418
04194						4.717226	4.639845	7.283853	-0.004340	-0.002809	-0.002128	-0.130006	-0.289379	-0.215879	-0.923447
04195						4.697371	4.629750	7.293487	0.001881	-0.003130	-0.000798	-0.130011	-0.289388	-0.215885	-0.923442
04196						4.704448	4.659098	7.276346	-0.001763	-0.005302	-0.000867	-0.130029	-0.289358	-0.215850	-0.923457
04197						4.704739	4.659070	7.276176	0.000150	-0.003522	-0.000419	-0.130035	-0.289367	-0.215847	-0.923454
04198						4.698161	4.629710	7.293003	-0.001399	-0.002529	0.000785	-0.130037	-0.289306	-0.215802	-0.923483
04199						4.689814	4.660065	7.306899	-0.000364	-0.002773	-0.001652	-0.130049	-0.289310	-0.215798	-0.923482
04200						4.694750	4.671143	7.327990	-0.003494	-0.005694	-0.000488	-0.130085	-0.289313	-0.215768	-0.923483
04201						4.718781	4.639403	7.283127	-0.003976	-0.000036	-0.000475	-0.130094	-0.289303	-0.215748	-0.923489
04202						4.705631	4.658489	7.275971	0.000514	-0.000749	0.001233	-0.130118	-0.289305	-0.215749	-0.923485
04203						4.700944	4.647189	7.254862	-0.004490	0.000713	-0.001708	-0.130132	-0.289290	-0.215729	-0.923492
04204						4.657001	4.668412	7.309668	-0.002245	0.000357	-0.000854	-0.130101	-0.289210	-0.215662	-0.923537
04205						4.710156	4.669141	7.297599	-0.003976	-0.000036	-0.000475	-0.130109	-0.289199	-0.215642	-0.923544
04206						4.685493	4.647692	7.286239	-0.001731	-0.000393	0.000379	-0.130128	-0.289132	-0.215606	-0.923571
04207						4.705475	4.657552	7.276671	-0.003794	0.001350	0.000351	-0.130131	-0.289115	-0.215586	-0.923581
04208						4.705584	4.657434	7.276677	-0.000032	-0.004909	-0.001246	-0.130085	-0.289096	-0.215541	-0.923603
04209						4.685724	4.647250	7.286373	-0.003976	-0.000036	-0.000475	-0.130093	-0.289084	-0.215520	-0.923611
04210						4.743645	4.659196	7.295413	0.000514	-0.000749	0.001233	-0.129976	-0.289038	-0.215440	-0.923661
04211						4.681306	4.635768	7.265206	-0.002433	-0.002285	0.003223	-0.129967	-0.289041	-0.215417	-0.923666
04212						4.699449	4.627466	7.293597	-0.001399	-0.002529	0.000785	-0.130001	-0.289023	-0.215402	-0.923671
04213						4.691082	4.657888	7.307473	0.001366	-0.002380	-0.002031	-0.130011	-0.289023	-0.215405	-0.923668
04214						4.681802	4.635758	7.264893	0.001366	-0.002380	-0.002031	-0.129997	-0.288975	-0.215367	-0.923694
04215						4.724437	4.649127	7.304613	0.001366	-0.002380	-0.002031	-0.130007	-0.288975	-0.215369	-0.923693
04216						4.686814	4.647315	7.285630	0.002030	-0.006652	-0.001219	-0.129908	-0.288974	-0.215306	-0.923721
04217						4.700346	4.628203	7.292552	0.000150	-0.003523	-0.000420	-0.129912	-0.288980	-0.215299	-0.923721
04218						4.694133	4.676869	7.268203	0.001183	-0.003767	-0.002858	-0.129918	-0.288982	-0.215291	-0.923721
04219						4.725348	4.649660	7.303685	-0.002793	-0.003803	-0.003332	-0.129940	-0.288984	-0.215274	-0.923721
04220						4.672288	4.648864	7.315753	0.003611	-0.002737	-0.001178	-0.129963	-0.288950	-0.215273	-0.923729
04221						4.712471	4.669201	7.296066	0.000149	-0.003523	-0.000420	-0.129967	-0.288955	-0.215265	-0.923728
04222						4.689786	4.588294	7.287338	-0.000033	-0.004909	-0.001246	-0.129949	-0.288989	-0.215247	-0.923725
04223						4.688179	4.648290	7.284129	0.004130	-0.002232	-0.004849	-0.129966	-0.288986	-0.215265	-0.923719
04224						4.708245	4.658808	7.274075	0.003428	-0.004124	-0.002005	-0.129971	-0.289050	-0.215294	-0.923691
04225						4.708418	4.659090	7.273782	0.001183	-0.003767	-0.002858	-0.129985	-0.289056	-0.215295	-0.923687
04226						4.708398	4.659378	7.273612	-0.001241	-0.003543	-0.009440	-0.130110	-0.289044	-0.215325	-0.923667
04227						4.708927	4.712225	7.330129	-0.006915	0.000936	-0.008289	-0.130157	-0.289017	-0.215300	-0.923675
04228						4.672609	4.650326	7.314619	-0.004341	-0.002811	-0.002127	-0.130091	-0.289059	-0.215244	-0.923684
04229						4.694247	4.522960	7.348688	0.002881	-0.008284	-0.004484	-0.130115	-0.289086	-0.215252	-0.923670
04230						4.694823	4.601781	7.306849	0.010108	-0.011249	-0.016647	-0.130218	-0.289051	-0.215296	-0.923656
04231						4.716933	4.718896	7.408617	0.014562	-0.018125	-0.011285	-0.130268	-0.289122	-0.215362	-0.923611
04232						4.676918	4.404554	7.301368	0.015739	-0.023148	-0.009240	-0.130380	-0.289222	-0.215457	-0.923542
04233						4.811898	4.579191	7.263186	0.032127	-0.022395	-0.031879	-0.130504	-0.289302	-0.215631	-0.923459
04234						4.712651	4.765341	7.186608	0.015253	-0.012483	-0.028841	-0.130682	-0.289325	-0.215744	-0.923400
04235						4.599247	4.813875	7.186055	0.007699	-0.006127	-0.021986	-0.130778	-0.289325	-0.215802	-0.923373
04236						4.429138	4.979569	7.192530	-0.001032	0.001497	-0.002465	-0.130824	-0.289290	-0.215798	-0.923378
04237						4.811456	4.661486	7.219656	-0.030370	0.000871	0.021201	-0.130769	-0.289279	-0.215623	-0.923431
04238						4.701932	4.431188	7.309347	-0.000782	0.011455	0.005754	-0.130743	-0.289172	-0.215601	-0.923473
04239						4.652658	4.632064	7.354866	0.012377	-0.009203	-0.004745	-0.130756	-0.289208	-0.215654	-0.923447
04240						4.745399	4.679336	7.224748	0.010346	-0.002549	-0.003527	-0.130778	-0.289256	-0.215716	-0.923415
04241						4.670421	4.572987	7.325410	0.007370	-0.010248	0.002126	-0.130769	-0.289300	-0.215735	-0.923398
04242						4.772862	4.642749	7.237345	0.020840	-0.008624	-0.007473	-0.130714	-0.289366	-0.215804	-0.923369
04243						4.667636	4.772641	7.276270	0.005154	-0.002480	-0.007289	-0.130742	-0.289364	-0.215832	-0.923359
04244						4.696022	4.752554	7.252477	-0.003792	0.001349	0.000354	-0.130731	-0.289320	-0.215795	-0.923383
04245						4.748761	4.674812	7.282083	-0.017380	0.009411	0.006712	-0.130714	-0.289263	-0.215706	-0.923424
04246						4.637182	4.660433	7.286634	-0.013442	0.007040	-0.003868	-0.130736	-0.289226	-0.215647	-0.923446
04247						4.694409	4.749023	7.255834	-0.027732	0.014460	0.000431	-0.130758	-0.289132	-0.215523	-0.923502
04248						4.647751	4.672168	7.391629	-0.027583	0.008431	0.009818	-0.130679	-0.289037	-0.215331	-0.923587
04249						4.665829	4.496849	7.311544	-0.018118	0.002603	0.008311	-0.130663	-0.289012	-0.215231	-0.923620
04250						4.768610	4.694983	7.240793	-0.012962	0.002634	-0.008785	-0.130665	-0.289042	-0.215172	-0.923625
04251						4.635854	4.705082	7.349557	-0.025376	0.005668	-0.000382	-0.130695	-0.288990	-0.215053	-0.923664
04252						4.716484	4.553439	7.299322	-0.020401	-0.001957	0.006210	-0.130622	-0.288962	-0.214892	-0.923721
04253						4.688400	4.650642	7.282486	-0.006439	-0.004727	-0.008302	-0.130673	-0.288962	-0.214864	-0.923720
04254						4.644630	4.706679	7.430821	0.006878	-0.033918	0.000378	-0.130693	-0.289093	-0.214854	-0.923679
04255						4.102750	4.266043	8.312831	0.305039	-0.312202	0.058291	-0.130316	-0.290787	-0.215967	-0.922940
04256						4.625409	4.571921	7.283366	0.685332	-0.645354	0.151290	-0.129248	-0.294374	-0.218448	-0.921368
04257						5.472554	5.200469	6.750998	0.476472	-0.288850	0.121683	-0.128299	-0.296136	-0.220269	-0.920502
04258						4.942784	4.365553	6.863887	0.297196	-0.155432	0.098357	-0.127533	-0.297123	-0.221351	-0.920031
04259						4.914350	4.606343	7.329393	0.349558	-0.090540	0.028949	-0.126978	-0.297786	-0.222850	-0.919531
04260						4.956734	4.658512	6.999616	0.297817	-0.094543	-0.013165	-0.126694	-0.298403	-0.224174	-0.919048
04261						4.767929	4.973524	7.122640	0.234091	-0.062327	-0.044950	-0.126619	-0.298779	-0.225270	-0.918669
04262						4.958706	5.193648	6.978370	0.130734	-0.017177	-0.038666	-0.126652	-0.298881	-0.225928	-0.918470
04263						4.815318	4.948270	6.978817	0.067991	0.003599	-0.009821	-0.126589	-0.298888	-0.226250	-0.918397
04264						4.807796	4.960888	7.088249	0.044597	0.030542	-0.001232	-0.126443	-0.298718	-0.226412	-0.918432
04265						4.874009	4.809520	7.129363	0.053945	0.023415	0.002169	-0.126324	-0.298639	-0.226664	-0.918412
04266						4.901139	4.848421	6.929022	0.044599	0.023238	-0.007707	-0.126341	-0.298424	-0.226863	-0.918430
04267						4.919825	5.068123	6.886996	0.018980	0.050551	0.000018	-0.126253	-0.298194	-0.226974	-0.918490
04268						4.872460	4.900948	6.937880	-0.004864	0.083179	0.008508	-0.126161	-0.297812	-0.227002	-0.918619
04269						4.787498	4.860402	6.984160	-0.027054	0.089331	0.011140	-0.126046	-0.297388	-0.226910	-0.918795
04270						4.720747	4.811690	7.059254	-0.028865	0.083998	0.010359	-0.125890	-0.296993	-0.226785	-0.918975
04271						4.776555	4.701767	7.081983	-0.040719	0.083932	0.009032	-0.125812	-0.296582	-0.226630	-0.919157
04272						4.807382	4.646336	7.051394	-0.052467	0.081517	0.002407	-0.125801	-0.296123	-0.226410	-0.919360
04273						4.723936	4.811103	7.067184	-0.058942	0.076698	-0.005787	-0.125826	-0.295717	-0.226187	-0.919543
04274						4.724808	4.758713	7.099427	-0.075762	0.076892	-0.005136	-0.125870	-0.295266	-0.225872	-0.919759
04275						4.801579	4.749696	7.032442	-0.091092	0.090655	-0.007873	-0.125936	-0.294772	-0.225514	-0.919996
04276						4.887280	4.840584	6.965357	-0.092387	0.105298	-0.013337	-0.126009	-0.294209	-0.225163	-0.920252
04277						4.805597	4.747726	7.041066	-0.106293	0.103283	-0.035972	-0.126212	-0.293616	-0.224783	-0.920507
04278						4.625603	4.813503	7.136455	-0.111508	0.091107	-0.047396	-0.126506	-0.293049	-0.224387	-0.920744
04279						4.653116	4.715619	7.245683	-0.117667	0.081738	-0.045366	-0.126793	-0.292536	-0.223955	-0.920972
04280						4.703604	4.685219	7.169432	-0.115941	0.076027	-0.057175	-0.127165	-0.291984	-0.223527	-0.921200
04281						4.625522	4.739996	7.217942	-0.120286	0.076889	-0.053155	-0.127497	-0.291482	-0.223091	-0.921419
04282						4.687516	4.596020	7.230256	-0.124541	0.070499	-0.055639	-0.127888	-0.291003	-0.222643	-0.921625
04283						4.662300	4.444132	7.294405	-0.097681	0.043073	-0.065773	-0.128283	-0.290657	-0.222308	-0.921760
04284						4.757303	4.699053	7.220869	-0.074674	0.027916	-0.083792	-0.128761	-0.290375	-0.222097	-0.921833
04285						4.679169	4.817516	7.261392	-0.072768	0.033382	-0.077248	-0.129184	-0.290077	-0.221887	-0.921918
04286						4.672177	4.644867	7.387993	-0.042869	0.003900	-0.074665	-0.129533	-0.289973	-0.221779	-0.921928
04287						4.789042	4.617983	7.179058	0.012315	-0.022705	-0.085230	-0.129931	-0.289980	-0.221936	-0.921832
04288						4.594538	4.913841	7.146137	0.007171	-0.020177	-0.077953	-0.130251	-0.289973	-0.222025	-0.921768
04289						4.577017	4.840608	7.219208	-0.025559	-0.005582	-0.060475	-0.130570	-0.289904	-0.221982	-0.921754
04290						4.746729	4.693609	7.177874	-0.050554	0.007691	-0.042879	-0.130733	-0.289794	-0.221771	-0.921817
04291						4.598587	4.645114	7.323929	-0.064185	0.027954	-0.028823	-0.130925	-0.289581	-0.221526	-0.921915
04292						4.558120	4.615404	7.407491	-0.056535	0.037577	-0.016062	-0.131065	-0.289313	-0.221309	-0.922032
04293						4.694129	4.683254	7.341914	-0.040069	0.029773	-0.019483	-0.131177	-0.289117	-0.221163	-0.922112
04294						4.597748	4.814928	7.292847	-0.027336	0.027029	-0.016426	-0.131238	-0.288908	-0.221042	-0.922198
04295						4.603852	4.782830	7.281912	-0.024651	0.035653	0.003230	-0.131216	-0.288720	-0.220937	-0.922285
04296						4.563411	4.855732	7.224021	-0.017022	0.040355	0.014788	-0.131145	-0.288509	-0.220851	-0.922382
04297						4.582728	5.166397	7.108868	-0.026726	0.060634	0.029321	-0.130979	-0.288233	-0.220716	-0.922524
04298						4.584515	4.886946	7.205718	-0.065153	0.080889	0.063855	-0.130705	-0.287796	-0.220344	-0.922788
04299						4.607807	4.840880	7.228043	-0.071508	0.099441	0.066577	-0.130388	-0.287352	-0.219974	-0.923060
04300						4.706145	4.953779	7.204920	-0.078269	0.104144	0.070131	-0.130025	-0.286909	-0.219578	-0.923343
04301						4.436959	4.594068	7.347428	-0.078999	0.110829	0.080329	-0.129643	-0.286423	-0.219160	-0.923647
04302						4.577660	4.821812	7.225227	-0.068731	0.111902	0.082955	-0.129234	-0.285891	-0.218761	-0.923963
04303						4.577823	4.823690	7.255444	-0.081527	0.126885	0.093338	-0.128778	-0.285342	-0.218324	-0.924300
04304						4.711450	4.865480	7.235788	-0.090802	0.119477	0.097650	-0.128289	-0.284759	-0.217790	-0.924674
04305						4.688886	4.706456	7.300478	-0.101464	0.114454	0.103972	-0.127825	-0.284266	-0.217236	-0.925020
04306						4.573658	4.741731	7.308575	-0.081304	0.084390	0.100256	-0.127401	-0.283949	-0.216800	-0.925278
04307						4.326794	4.684370	7.308388	-0.081696	0.042492	0.094468	-0.127031	-0.283791	-0.216306	-0.925493
04308						4.540645	4.927143	7.275147	-0.075519	0.028732	0.113792	-0.126550	-0.283719	-0.215808	-0.925697
04309						4.753210	4.719270	7.451925	-0.120809	-0.001146	0.112773	-0.126197	-0.283758	-0.215078	-0.925903
04310						4.575732	4.732535	7.285227	-0.108682	-0.025247	0.098648	-0.125885	-0.283874	-0.214387	-0.926070
04311						4.667719	4.769664	7.272967	-0.129786	-0.016749	0.126845	-0.125497	-0.283994	-0.213585	-0.926272
04312						4.633642	4.572230	7.438602	-0.107701	-0.002357	0.133893	-0.125043	-0.284037	-0.212896	-0.926478
04313						4.844570	4.538815	7.352876	-0.078688	-0.015699	0.137710	-0.124530	-0.284195	-0.212316	-0.926632
04314						4.569572	4.637121	7.499398	-0.088116	-0.009775	0.144889	-0.124029	-0.284292	-0.211697	-0.926811
04315						4.633702	4.555799	7.301957	-0.086472	-0.009441	0.144507	-0.123489	-0.284422	-0.211075	-0.926985
04316						4.619537	4.901999	7.320486	-0.090480	0.003909	0.152661	-0.122961	-0.284453	-0.210442	-0.927190
04317						4.612128	4.827625	7.359822	-0.128947	0.019556	0.182183	-0.122276	-0.284462	-0.209587	-0.927471
04318						4.749738	4.494197	7.444262	-0.153766	0.006545	0.190140	-0.121581	-0.284516	-0.208599	-0.927769
04319						4.732211	4.572742	7.434167	-0.149988	-0.011747	0.186391	-0.120939	-0.284661	-0.207620	-0.928028
04320						4.674893	4.485457	7.545426	-0.169217	0.002218	0.200379	-0.120243	-0.284727	-0.206547	-0.928337
04321						4.662365	4.316712	7.603586	-0.147076	-0.035575	0.184969	-0.119628	-0.284982	-0.205570	-0.928556
04322						4.698702	4.291846	7.715931	-0.124972	-0.075892	0.185039	-0.119046	-0.285410	-0.204691	-0.928693
04323						4.731937	4.206069	7.746426	-0.101087	-0.131413	0.170655	-0.118529	-0.286122	-0.203890	-0.928716
04324						4.833882	4.255555	7.858736	-0.065968	-0.188855	0.166242	-0.117958	-0.287105	-0.203184	-0.928640
04325						4.680878	4.167873	7.956634	-0.026723	-0.266657	0.164077	-0.117502	-0.288481	-0.202656	-0.928387
04326						4.742815	4.401457	8.065360	-0.034360	-0.360044	0.151008	-0.117231	-0.290262	-0.202079	-0.927992
04327						5.094742	4.275393	8.281362	-0.125242	-0.496737	0.127477	-0.117320	-0.292608	-0.201010	-0.927476
04328						3.557277	4.598300	8.591979	-0.044895	-0.598767	0.147671	-0.117322	-0.295447	-0.200221	-0.926746
04329						5.097916	5.263344	8.613105	-0.164675	-0.832584	0.211900	-0.117414	-0.299404	-0.198644	-0.925803
04330						4.775013	4.511976	8.539705	-0.129885	-0.997611	0.301941	-0.117193	-0.304243	-0.197001	-0.924604
04331						4.718784	4.900814	8.725169	-0.156695	-1.240474	0.373952	-0.116920	-0.310234	-0.194967	-0.923078
04332						5.114456	4.646878	8.390652	-0.138669	-1.475637	0.472576	-0.116299	-0.317429	-0.192697	-0.921185
04333						4.762163	4.955137	8.445139	-0.060109	-1.726622	0.534957	-0.115587	-0.325837	-0.190548	-0.918783
04334						4.983366	4.785744	8.412658	-0.003786	-2.000881	0.604909	-0.114722	-0.335573	-0.188392	-0.915826
04335						5.129249	4.878525	8.235677	0.139887	-2.281073	0.683877	-0.113494	-0.346707	-0.186552	-0.912202
04336						4.983441	5.173684	8.671216	0.178373	-2.533625	0.790875	-0.111951	-0.359115	-0.184563	-0.907987
04337						5.350511	4.892337	8.817500	0.196050	-2.844138	0.908068	-0.110086	-0.372923	-0.182200	-0.903113
04338						5.339009	5.634071	9.232248	0.191522	-3.142773	1.024338	-0.107870	-0.388152	-0.179386	-0.897509
04339						5.047851	6.515144	10.663769	-0.048506	-3.600525	1.190585	-0.105829	-0.405271	-0.174873	-0.891053
04340						5.893293	6.877364	9.385506	-0.333171	-4.218493	1.380044	-0.104008	-0.425038	-0.168343	-0.883281
04341						6.163952	7.209033	8.520044	-0.324850	-4.493590	1.691664	-0.100978	-0.446004	-0.160918	-0.874637
04342						6.050307	7.460815	9.513865	-0.384132	-4.856553	2.032055	-0.096714	-0.468617	-0.152214	-0.864798
04343						5.888466	6.713517	9.112937	-0.257205	-5.407723	2.377799	-0.091108	-0.493469	-0.142839	-0.853103
04344						5.517069	7.601145	8.806195	0.032070	-6.045565	2.749706	-0.083410	-0.521053	-0.133390	-0.838900
04345						6.668385	9.470888	6.402461	0.227824	-6.677582	3.715865	-0.071625	-0.551241	-0.121773	-0.822298
04346						14.828728	5.911467	7.517848	-0.609907	-7.443793	4.808891	-0.057878	-0.584206	-0.103323	-0.802918
04347						4.687466	12.442850	10.558733	-0.012807	-7.686217	5.743790	-0.038767	-0.617337	-0.084146	-0.781224
04348						0.862001	21.718288	12.913225	-0.605661	-7.920522	5.889932	-0.020842	-0.649848	-0.062093	-0.757237
04349						15.666605	17.587482	8.165996	-0.189843	-7.387613	5.786003	-0.001830	-0.678865	-0.041730	-0.733074
04350						23.154174	15.709207	6.272204	-0.191023	-6.018745	4.864793	0.013871	-0.701177	-0.024711	-0.712424
04351						22.525316	22.064879	9.505241	-0.731107	-3.744776	3.941229	0.024877	-0.714785	-0.008528	-0.698850
04352						21.663624	17.288074	18.844887	-1.115315	-0.855586	2.331706	0.028675	-0.717666	0.003194	-0.695790
04353						11.292416	19.040495	20.581232	-0.093356	1.570538	1.108639	0.032170	-0.712161	0.007735	-0.701237
04354						-5.220827	21.474167	15.930746	-1.128309	2.563965	0.827591	0.030553	-0.702842	0.014514	-0.710542
04355						-8.800489	7.533470	12.051016	-0.299496	2.670364	1.143965	0.033367	-0.693238	0.020018	-0.719657
04356						-1.167333	12.151436	11.959597	0.622255	2.953912	0.259253	0.035722	-0.681913	0.018531	-0.730325
04357						-2.766531	21.105316	11.644309	0.580597	3.445523	-0.424590	0.035826	-0.669158	0.015589	-0.742093
04358						-5.408280	18.622693	10.087696	-0.027143	3.688586	-1.117323	0.030816	-0.654869	0.011855	-0.755020
04359						-5.180447	12.843259	7.813546	-0.070461	3.696371	-2.070942	0.022542	-0.640898	0.005920	-0.767272
04360						-4.651202	10.501123	6.893787	0.321900	3.628840	-2.883798	0.011881	-0.626198	-0.004997	-0.779558
04361						-2.904274	10.853264	7.058862	0.453699	3.686973	-3.451203	-0.000059	-0.611508	-0.017337	-0.791048
04362						-1.063126	10.358946	7.293678	0.505213	3.946910	-3.778587	-0.013648	-0.594602	-0.031783	-0.803276
04363						-0.675079	8.373770	7.202975	0.558644	4.149356	-3.963940	-0.027238	-0.577095	-0.046067	-0.814922
04364						0.126878	6.741902	7.075066	0.612620	4.288404	-4.041187	-0.041469	-0.557699	-0.061723	-0.826706
04365						1.452826	5.781377	7.863524	0.904755	4.426415	-4.053804	-0.054312	-0.538079	-0.077642	-0.837552
04366						3.334565	6.218427	8.679398	1.133872	4.612237	-4.098599	-0.067126	-0.516318	-0.095572	-0.848396
04367						4.775315	7.949795	9.413985	1.150063	4.842465	-4.037782	-0.078930	-0.493964	-0.112438	-0.858561
04368						5.662865	7.241796	9.604506	1.244110	5.086897	-3.912104	-0.090247	-0.469188	-0.130330	-0.868753
04369						5.852890	6.392625	9.672026	1.546912	5.110654	-3.772849	-0.099620	-0.444974	-0.148124	-0.877572
04370						6.464840	6.949522	10.366741	1.838119	4.927636	-3.665103	-0.108384	-0.420308	-0.167653	-0.885148
04371						7.576826	7.809285	11.086469	1.985107	4.642050	-3.685431	-0.116570	-0.397541	-0.186606	-0.890815
04372						8.032014	9.067111	11.766304	2.094782	4.011361	-3.753119	-0.125783	-0.376171	-0.206559	-0.894431
04373						10.792137	10.300393	12.777925	2.044394	3.302168	-3.864536	-0.135753	-0.358551	-0.224960	-0.895771
04374						15.471039	9.482485	13.113166	2.031975	2.726651	-3.971393	-0.147224	-0.342062	-0.243820	-0.895472
04375						18.938905	7.868031	12.457877	1.803372	2.253928	-3.781361	-0.158271	-0.328585	-0.259944	-0.894098
04376						23.326317	4.907362	12.472904	1.765946	2.151199	-3.520254	-0.168681	-0.314685	-0.276047	-0.892366
04377						27.746057	4.500888	11.645088	1.737937	2.350250	-3.588560	-0.178658	-0.300621	-0.291350	-0.890407
04378						27.914511	4.107632	8.590425	1.182538	2.321426	-3.436674	-0.189107	-0.285355	-0.304450	-0.888888
04379						28.507592	0.232965	6.104307	0.754161	2.093340	-3.282268	-0.199383	-0.271705	-0.314399	-0.887455
04380						30.470715	-2.071203	3.136089	0.327459	1.839032	-3.292787	-0.210894	-0.257889	-0.322641	-0.885957
04381						29.817290	-3.907596	0.591508	-0.077780	1.531570	-3.087758	-0.222159	-0.245996	-0.327842	-0.884676
04382						30.212033	-6.356979	-1.972453	-0.430396	1.162191	-2.883348	-0.233695	-0.235051	-0.331146	-0.883448
04383						30.977097	-7.950902	-4.428807	-0.646012	0.728923	-2.456509	-0.244065	-0.226982	-0.331999	-0.882433
04384						31.631876	-10.012351	-6.154007	-0.630115	0.263359	-1.821122	-0.252469	-0.221655	-0.331884	-0.881466
04385						32.018288	-11.988749	-6.629960	-0.406533	-0.214788	-1.096534	-0.258092	-0.220257	-0.331028	-0.880509
04386						32.068294	-11.742944	-5.765342	-0.135106	-0.540559	-0.438986	-0.261092	-0.221592	-0.330391	-0.879528
04387						30.674798	-9.573598	-4.347056	0.065067	-0.715859	0.168917	-0.261445	-0.225094	-0.329551	-0.878849
04388						30.444708	-5.120327	-4.977156	-0.055901	-1.115359	1.074395	-0.258574	-0.231749	-0.326685	-0.879039
04389						19.008838	1.604979	-2.186353	-2.529697	-1.998449	3.120697	-0.250977	-0.242292	-0.309284	-0.884674
04390						-1.549846	-9.249038	21.246325	-2.166056	-5.523178	4.363342	-0.242583	-0.270800	-0.287272	-0.886169
04391						16.047084	13.751119	29.730803	-0.230748	-2.885262	0.423873	-0.245124	-0.283876	-0.282143	-0.883020
04392						2.361334	20.310374	9.571401	-1.027863	-2.461651	1.781432	-0.242083	-0.296138	-0.271915	-0.883040
04393						0.769172	-18.814629	2.035169	-0.117982	-2.899985	2.621214	-0.234570	-0.312297	-0.263948	-0.881918
04394						21.185103	1.217843	17.427384	-1.735911	-1.733362	0.826145	-0.235834	-0.319130	-0.252820	-0.882395
04395						21.035849	27.483502	4.279937	-1.557371	0.074605	1.108697	-0.233312	-0.318343	-0.244252	-0.885756
04396						3.437302	8.380958	5.414900	-1.811794	0.149438	1.826319	-0.227816	-0.318001	-0.233336	-0.890241
04397						8.364237	0.354375	10.142612	-1.788171	-0.076107	0.387992	-0.229001	-0.316734	-0.224659	-0.892618
04398						7.379477	-3.097283	9.854849	-1.051242	0.237475	0.455869	-0.228275	-0.315204	-0.219363	-0.894660
04399						6.566765	7.525293	6.194520	-0.623274	0.037886	-0.177048	-0.229997	-0.314119	-0.216892	-0.895203
04400						6.598438	5.009569	7.698915	-0.577655	0.112313	0.321860	-0.229256	-0.313529	-0.213755	-0.896354
04401						4.112056	1.272862	7.545143	-0.332749	0.113618	0.093385	-0.229227	-0.312729	-0.212244	-0.897000
04402						5.776465	6.315575	7.013351	-0.261962	0.094757	0.002220	-0.229445	-0.312231	-0.210989	-0.897413
04403						4.698618	4.773830	6.833001	-0.215336	0.108096	0.086381	-0.229270	-0.311581	-0.210007	-0.897914
04404						5.101090	4.905119	7.253384	-0.208467	0.093266	0.044474	-0.229218	-0.311193	-0.208929	-0.898313
04405						4.404277	4.561248	7.422324	-0.105900	0.071156	0.041914	-0.229110	-0.310787	-0.208466	-0.898589
04406						4.518056	6.077393	6.660737	-0.113891	0.071558	0.054285	-0.228893	-0.310610	-0.207773	-0.898866
04407						5.461542	6.029038	6.297755	-0.266467	0.114061	0.116142	-0.228656	-0.309903	-0.206520	-0.899458
04408						4.946908	4.958855	7.089692	-0.305986	0.146242	0.107713	-0.228421	-0.309223	-0.204975	-0.900106
04409						4.349059	4.758496	7.494482	-0.262545	0.103281	0.049997	-0.228486	-0.308500	-0.203830	-0.900597
04410						4.675450	5.436745	7.053296	-0.245508	0.060566	0.015795	-0.228660	-0.308173	-0.202602	-0.900942
04411						4.729270	5.637316	6.892784	-0.275197	0.067817	0.059968	-0.228736	-0.307605	-0.201342	-0.901399
04412						5.012364	5.615585	6.921283	-0.349543	0.100470	0.055207	-0.228855	-0.307014	-0.199637	-0.901950
04413						4.398760	5.517465	7.278993	-0.372968	0.118275	0.119824	-0.228759	-0.306164	-0.197901	-0.902645
04414						5.120666	5.374357	7.084225	-0.405686	0.099963	0.155650	-0.228512	-0.305604	-0.195792	-0.903357
04415						5.145554	4.573607	7.597653	-0.362480	0.099917	0.247554	-0.227840	-0.304972	-0.193885	-0.904151
04416						4.701202	3.157947	8.118953	-0.253021	0.012455	0.287315	-0.226851	-0.305104	-0.192166	-0.904722
04417						4.945365	3.666777	7.678029	-0.072287	-0.123718	0.210251	-0.226119	-0.305775	-0.191373	-0.904847
04418						5.242568	5.271043	7.355083	0.022168	-0.184716	0.272272	-0.224969	-0.307089	-0.190689	-0.904833
04419						4.943484	5.403783	6.948886	0.109983	-0.208248	0.496434	-0.222743	-0.308618	-0.190185	-0.904970
04420						5.200449	6.389681	6.405768	0.493767	-0.308397	0.671101	-0.219174	-0.311388	-0.190885	-0.904745
04421						5.438506	5.141607	7.417804	0.223685	-0.155547	0.886893	-0.214951	-0.313172	-0.190338	-0.905257
04422						4.986399	3.499106	7.092598	0.232314	-0.295717	0.757885	-0.211375	-0.315666	-0.189736	-0.905360
04423						5.019851	4.939023	7.147219	0.332608	-0.334757	0.660029	-0.208169	-0.318148	-0.189839	-0.905212
04424						4.811729	5.498640	8.045688	0.211956	-0.407134	0.736127	-0.204825	-0.321089	-0.189054	-0.905101
04425						4.822839	4.104303	8.310861	0.087454	-0.542135	0.783411	-0.201640	-0.324360	-0.187629	-0.904946
04426						4.812314	4.066477	8.478401	0.139568	-0.787140	0.727852	-0.198798	-0.328913	-0.186136	-0.904239
04427						4.912560	4.938397	8.970172	0.094438	-1.025743	0.774852	-0.196082	-0.334351	-0.184260	-0.903222
04428						4.540002	4.389827	9.727477	-0.027656	-1.324650	0.864771	-0.193382	-0.341253	-0.181236	-0.901833
04429						4.542016	3.841969	9.819805	-0.029493	-1.750336	0.844693	-0.191191	-0.349858	-0.177954	-0.899654
04430						4.677712	4.462743	10.001134	0.032523	-2.204375	0.853591	-0.189191	-0.360683	-0.174335	-0.896505
04431						4.711946	4.555892	10.275544	0.050685	-2.689271	0.946814	-0.187172	-0.373566	-0.170287	-0.892422
04432						4.683344	4.015972	10.511763	0.139816	-3.214707	0.991526	-0.185148	-0.388954	-0.165872	-0.887086
04433						4.457064	4.220418	10.463788	0.271143	-3.836502	1.015712	-0.183253	-0.406978	-0.161508	-0.880172
04434						4.793506	5.333245	10.309857	0.555469	-4.495806	1.133111	-0.180670	-0.428172	-0.157327	-0.871364
04435						5.100463	6.338969	9.787261	0.975337	-5.159967	1.416477	-0.176396	-0.452479	-0.153817	-0.860516
04436						5.005961	7.940961	9.996785	1.406079	-5.811473	1.823444	-0.169707	-0.479970	-0.150393	-0.847473
04437						6.113764	9.828459	9.879536	1.496909	-6.561346	2.512741	-0.160287	-0.510609	-0.145034	-0.832197
04438						4.141154	11.347893	13.931949	1.609440	-7.441737	3.319259	-0.147587	-0.544859	-0.137045	-0.813981
04439						3.338488	13.987548	11.947563	1.309079	-9.590546	4.573232	-0.131770	-0.587183	-0.122638	-0.789185
04440						8.508652	14.884490	7.480974	1.371801	-11.385510	5.840058	-0.111397	-0.635331	-0.103084	-0.757178
04441						6.479533	23.262379	20.485636	1.728998	-12.088940	7.078909	-0.085076	-0.684080	-0.080161	-0.719980
04442						18.763992	20.369718	13.755656	2.247460	-9.950525	7.682984	-0.053586	-0.722450	-0.057589	-0.686934
04443						32.685949	38.802440	13.476230	-0.482679	-6.748747	7.014183	-0.033123	-0.746646	-0.028719	-0.663776
04444						17.970511	24.297360	16.595110	-3.761134	-4.748612	4.707856	-0.032289	-0.761791	0.002024	-0.647015
04445						17.708203	5.324062	29.079682	0.617337	-0.991807	2.619555	-0.021448	-0.764988	0.010175	-0.643607
04446						13.371006	20.407749	26.627911	2.147344	2.948529	2.419181	-0.005733	-0.755230	0.012020	-0.655325
04447						-6.675273	27.970285	18.101997	1.419230	4.934126	2.701251	0.008183	-0.738619	0.017434	-0.673848
04448						-10.339128	17.472946	13.403718	1.489555	5.570823	2.296115	0.020741	-0.718965	0.020806	-0.694425
04449						-3.298372	21.784198	11.269267	1.389181	5.797135	1.031045	0.028704	-0.698253	0.020292	-0.714988
04450						-6.306604	21.394088	8.321512	1.011312	5.755700	-0.476964	0.029724	-0.676963	0.015416	-0.735255
04451						-8.781651	17.452621	7.279619	0.722524	5.170044	-1.812188	0.025102	-0.657725	0.007400	-0.752803
04452						-6.446082	12.971309	6.725939	0.766927	4.615893	-2.868514	0.016420	-0.639747	-0.004849	-0.768395
04453						-3.198481	9.070046	5.971308	1.210942	4.593115	-3.747595	0.006006	-0.621612	-0.021097	-0.783018
04454						-1.955222	8.074897	6.090192	1.542285	4.685030	-4.215038	-0.005444	-0.602031	-0.040631	-0.797420
04455						-1.412268	8.311945	6.764822	1.419262	4.775631	-4.231068	-0.017061	-0.581843	-0.059121	-0.810970
04456						0.640405	6.032605	8.169880	1.365515	4.966075	-4.047660	-0.028253	-0.559839	-0.077399	-0.824495
04457						3.350326	3.879369	9.363350	1.638991	5.303239	-3.976354	-0.037980	-0.536339	-0.095979	-0.837667
04458						4.278054	4.894099	10.013000	1.810020	5.629327	-3.847174	-0.046735	-0.510396	-0.115462	-0.850870
04459						4.692296	6.317615	10.814013	1.889225	5.921525	-3.673014	-0.054081	-0.483189	-0.134169	-0.863483
04460						6.059835	6.868082	11.186457	1.991415	6.126605	-3.677845	-0.061208	-0.453898	-0.153791	-0.875545
04461						6.755192	8.580706	11.638125	2.180608	6.175531	-3.890963	-0.068489	-0.424207	-0.173935	-0.886061
04462						6.741642	10.935756	12.342368	2.381793	5.982625	-4.246607	-0.077191	-0.393886	-0.195982	-0.894699
04463						7.143390	12.315708	12.777041	2.450371	5.486599	-4.625372	-0.087612	-0.365469	-0.218019	-0.900680
04464						8.874362	12.781746	12.946120	2.507639	4.716842	-4.883505	-0.100008	-0.339098	-0.240725	-0.903915
04465						12.004200	11.021548	13.650021	2.701036	3.620987	-4.893410	-0.113116	-0.318000	-0.262898	-0.903861
04466						19.497223	9.541050	15.355824	2.823966	2.903115	-4.840040	-0.126810	-0.299272	-0.285408	-0.901608
04467						27.111538	8.706494	15.888281	2.868711	2.726021	-4.700251	-0.139741	-0.281947	-0.306961	-0.898195
04468						30.734931	8.118702	14.730331	2.497098	2.748750	-4.273985	-0.151307	-0.264033	-0.326471	-0.894879
04469						33.603533	5.190149	11.874150	1.761337	2.885400	-3.911154	-0.161706	-0.245975	-0.341586	-0.892562
04470						35.216489	0.343124	6.858227	1.189201	2.771579	-3.655623	-0.171903	-0.227712	-0.353925	-0.890693
04471						35.905706	-4.865092	2.147939	0.863191	2.331675	-3.484489	-0.182258	-0.211844	-0.363657	-0.888627
04472						35.708612	-8.420936	-1.227279	0.538536	1.626680	-3.266160	-0.193280	-0.198727	-0.371232	-0.886193
04473						34.804967	-10.416898	-3.006184	0.025082	0.817280	-3.015300	-0.205060	-0.189500	-0.375083	-0.883942
04474						35.217746	-11.294393	-4.828029	-0.583480	0.015487	-2.759065	-0.217773	-0.183385	-0.375315	-0.882091
04475						37.447430	-14.977910	-6.468639	-0.845936	-0.723851	-2.174362	-0.229466	-0.181553	-0.372762	-0.880586
04476						38.883786	-17.941789	-7.431331	-0.703141	-1.351645	-1.332134	-0.238444	-0.184109	-0.369443	-0.879068
04477						37.279270	-18.770115	-6.618383	-0.546235	-1.811281	-0.555265	-0.244706	-0.190376	-0.365378	-0.877710
04478						33.658433	-15.026183	-4.397097	-0.264860	-2.293956	-0.078187	-0.249404	-0.200034	-0.361502	-0.875843
04479						30.774338	-5.848616	-2.333277	-0.551672	-2.850555	0.389421	-0.253361	-0.212502	-0.355105	-0.874386
04480						5.662127	9.343545	8.566026	-1.927051	-4.316508	2.995339	-0.249775	-0.234370	-0.337860	-0.876661
04481						-31.247383	12.439231	45.139424	-0.371556	-6.579884	6.531921	-0.232418	-0.273507	-0.320003	-0.876798
04482						35.687736	8.841577	7.741887	-3.774343	-4.238090	1.050177	-0.239606	-0.289376	-0.296910	-0.877892
04483						28.621024	-27.357467	11.242387	0.307196	-4.101728	4.108772	-0.227103	-0.313713	-0.287275	-0.876060
04484						26.253820	9.473159	18.313107	-3.430251	-0.761140	0.738767	-0.230241	-0.314376	-0.270002	-0.880486
04485						9.398909	41.908896	0.975579	-1.280268	0.442802	2.018846	-0.222738	-0.313645	-0.261682	-0.885176
04486						9.143078	4.791302	6.127197	-2.806366	-0.229878	1.617874	-0.220168	-0.313855	-0.246297	-0.890145
04487						8.616498	-14.643313	13.814068	-1.552240	0.102416	0.502635	-0.220220	-0.312289	-0.238703	-0.892748
04488						5.983024	2.978951	6.851725	-0.783849	0.195177	-0.022571	-0.221244	-0.310776	-0.235258	-0.893937
04489						9.528424	10.912370	6.743056	-0.694319	0.115316	0.128217	-0.221600	-0.309631	-0.232081	-0.895076
04490						3.198657	-0.578577	7.466168	-0.546986	0.232986	0.321745	-0.220667	-0.308612	-0.229200	-0.896400
04491						6.190097	7.057161	7.037021	-0.491081	0.140721	-0.027154	-0.221373	-0.307397	-0.227194	-0.897153
04492						4.200538	3.346372	7.356544	-0.381228	0.163391	0.209607	-0.220770	-0.306733	-0.225143	-0.898046
04493						5.182920	3.907521	7.530042	-0.265237	0.103672	0.018907	-0.220963	-0.305986	-0.224036	-0.898530
04494						4.411219	5.199383	7.301506	-0.117407	0.059881	0.000282	-0.221016	-0.305838	-0.223370	-0.898733
04495						4.176618	6.625946	6.660045	-0.101554	0.065914	0.054224	-0.220842	-0.305480	-0.222902	-0.899014
04496						5.823661	6.008487	6.131005	-0.292100	0.108730	0.184804	-0.220279	-0.305119	-0.221227	-0.899688
04497						4.722932	5.538674	7.022912	-0.233079	0.165742	0.078085	-0.220088	-0.304193	-0.220240	-0.900290
04498						4.326153	5.378760	7.560141	-0.332239	0.187429	0.171216	-0.219560	-0.303416	-0.218495	-0.901106
04499						4.635700	5.186180	7.134700	-0.290221	0.190235	0.124451	-0.219220	-0.302366	-0.217205	-0.901853
04500						4.949131	5.874886	6.903999	-0.326273	0.196174	0.175926	-0.218653	-0.301554	-0.215490	-0.902674
04501						4.312360	5.605612	7.273985	-0.282000	0.209553	0.247158	-0.217725	-0.300556	-0.214071	-0.903568
04502						4.311888	5.902464	7.524687	-0.310927	0.116409	0.277823	-0.216760	-0.300225	-0.212187	-0.904354
04503						4.975549	5.445658	7.252306	-0.320989	0.049482	0.346945	-0.215609	-0.300010	-0.210265	-0.905149
04504						5.449488	5.000218	7.074329	-0.271936	0.103941	0.428348	-0.213918	-0.299928	-0.208319	-0.906027
04505						5.177577	4.588097	7.486565	-0.129706	0.066635	0.620332	-0.211220	-0.300122	-0.206869	-0.906928
04506						3.728578	5.813493	6.861441	0.569032	-0.149285	0.859486	-0.206571	-0.302515	-0.207813	-0.906988
04507						6.163852	6.446374	6.961250	0.300926	-0.235186	1.071026	-0.201489	-0.304990	-0.207308	-0.907418
04508						5.455584	3.449724	6.314702	0.290888	-0.104032	1.045393	-0.196356	-0.307059	-0.206745	-0.907973
04509						4.816016	3.182003	7.397905	0.319509	-0.173548	0.782508	-0.192479	-0.308957	-0.206819	-0.908143
04510						4.996281	3.948048	7.285784	0.224657	-0.255936	0.624668	-0.189509	-0.311202	-0.206439	-0.908087
04511						4.788414	4.352595	7.581597	0.129886	-0.260262	0.560214	-0.187020	-0.313074	-0.205906	-0.908081
04512						4.798981	4.244901	7.985938	0.003978	-0.387684	0.509175	-0.185052	-0.315578	-0.204574	-0.907918
04513						5.141720	4.524011	7.581458	0.012470	-0.537431	0.457567	-0.183493	-0.318486	-0.203406	-0.907481
04514						4.822817	5.198163	8.177272	-0.006570	-0.647779	0.523414	-0.181740	-0.322161	-0.201756	-0.906905
04515						4.847119	4.536261	8.678502	-0.096751	-0.889396	0.561391	-0.180234	-0.326659	-0.199598	-0.906074
04516						4.690325	4.176569	8.858927	-0.080479	-1.174789	0.532127	-0.179079	-0.332636	-0.197110	-0.904672
04517						4.727162	4.758511	9.419720	-0.057201	-1.544126	0.547907	-0.178201	-0.340089	-0.194546	-0.902627
04518						4.891711	4.815060	9.765584	-0.090697	-1.960591	0.621182	-0.177407	-0.349636	-0.191130	-0.899862
04519						4.815603	4.708212	10.000406	-0.054190	-2.430753	0.703617	-0.176635	-0.361159	-0.187480	-0.896223
04520						4.743037	4.887303	9.928087	0.036849	-2.929190	0.797708	-0.175678	-0.375202	-0.183400	-0.891474
04521						4.753865	4.772554	10.487204	0.117940	-3.473118	0.903437	-0.174577	-0.391545	-0.179146	-0.885507
04522						4.745279	5.363083	10.615808	0.313360	-4.093299	1.001995	-0.173113	-0.410910	-0.174762	-0.877863
04523						4.709656	6.524963	10.319558	0.750924	-4.761594	1.275539	-0.170070	-0.433436	-0.171256	-0.868263
04524						4.751405	7.424541	10.445803	1.321561	-5.481731	1.697116	-0.164415	-0.459756	-0.168386	-0.856293
04525						5.053963	8.973002	13.220063	1.797116	-6.331830	2.320830	-0.155572	-0.490003	-0.165431	-0.841622
04526						5.109939	12.835570	13.033284	1.678689	-7.755375	3.200440	-0.144221	-0.526235	-0.158288	-0.822935
04527						2.649411	14.670667	12.086396	2.294849	-9.446005	4.469689	-0.127061	-0.569512	-0.148930	-0.798330
04528						6.782329	12.975572	8.007932	2.103356	-12.375996	6.079183	-0.105684	-0.623402	-0.131656	-0.763458
04529						7.700661	22.908697	17.017503	3.655114	-13.498019	7.712162	-0.073428	-0.679880	-0.114027	-0.720673
04530						22.130695	27.269998	17.411172	2.917139	-10.782956	7.969801	-0.040764	-0.722720	-0.093143	-0.683622
04531						31.623646	48.646759	17.602982	0.194910	-5.956753	7.251373	-0.018006	-0.745686	-0.066289	-0.662747
04532						14.945386	24.338389	20.223136	-3.518054	-3.822288	4.261424	-0.018290	-0.758966	-0.038399	-0.649740
04533						16.110192	3.046373	32.161400	2.080475	0.492623	2.027945	-0.003707	-0.757856	-0.037493	-0.651333
04534						4.662675	23.555113	21.267589	2.738266	3.534712	2.150993	0.014265	-0.746435	-0.038380	-0.664198
04535						-13.845870	23.146258	16.507500	2.124237	4.738375	2.345599	0.030888	-0.730689	-0.036317	-0.681044
04536						-7.316306	19.402609	13.658913	2.011585	5.250156	1.462988	0.044051	-0.712274	-0.037160	-0.699532
04537						-2.416137	24.011114	11.760099	1.263480	5.893081	0.188693	0.050289	-0.691091	-0.039582	-0.719929
04538						-8.274628	20.510279	8.122045	0.371144	5.719751	-1.035794	0.048826	-0.669678	-0.043297	-0.739779
04539						-9.258969	15.231924	7.222637	0.006652	5.088830	-2.060423	0.042317	-0.650149	-0.048952	-0.757046
04540						-5.228008	11.765747	6.251464	0.225923	4.734311	-2.992291	0.032731	-0.630915	-0.058838	-0.772925
04541						-2.010066	10.727053	6.670000	0.444738	4.753683	-3.793158	0.020866	-0.611057	-0.071705	-0.788056
04542						-1.115134	9.787931	6.703816	0.450881	4.909670	-4.188915	0.007350	-0.589520	-0.086090	-0.803120
04543						-0.397855	7.198318	6.995395	0.515710	5.037374	-4.262886	-0.006074	-0.567110	-0.100483	-0.817467
04544						1.821255	4.997149	7.997401	0.901018	5.209504	-4.336284	-0.018757	-0.542965	-0.116940	-0.831361
04545						4.123874	5.955818	9.073852	1.238901	5.485282	-4.431201	-0.030583	-0.517338	-0.134547	-0.844585
04546						5.245395	7.910186	9.928858	1.260354	5.805702	-4.376438	-0.042009	-0.489306	-0.152365	-0.857671
04547						6.175768	8.065120	10.454576	1.240624	6.074922	-4.284243	-0.052677	-0.459901	-0.169324	-0.870084
04548						7.067903	8.458723	10.237542	1.357138	6.208759	-4.228245	-0.062779	-0.428882	-0.186843	-0.881594
04549						7.128597	8.222551	10.341637	1.718573	6.106871	-4.107819	-0.071439	-0.398356	-0.205001	-0.891170
04550						7.839699	9.163664	10.899002	2.235831	5.793529	-4.011216	-0.078987	-0.368475	-0.225260	-0.898468
04551						9.193623	12.236526	12.252430	2.629218	5.265498	-3.964254	-0.085959	-0.341158	-0.246304	-0.903082
04552						11.721670	13.828830	13.150373	2.837060	4.358086	-4.033566	-0.094031	-0.317044	-0.268109	-0.904853
04553						18.760457	13.465810	14.543387	2.828260	3.684779	-4.351589	-0.104234	-0.295703	-0.289392	-0.904405
04554						26.021299	10.689182	13.362502	2.682347	3.383808	-4.513296	-0.115833	-0.274623	-0.310175	-0.902749
04555						29.938410	8.076243	12.223000	2.521563	3.183615	-4.358507	-0.127040	-0.254825	-0.329242	-0.900291
04556						32.736659	6.044415	9.950565	2.054645	2.955191	-4.292998	-0.138911	-0.235215	-0.346019	-0.897579
04557						34.559848	2.793791	6.289189	1.398836	2.657512	-4.173862	-0.151338	-0.216953	-0.358934	-0.895095
04558						35.229603	-3.156888	2.697515	0.974904	2.169644	-3.887174	-0.163783	-0.200595	-0.369314	-0.892493
04559						35.528176	-7.869625	0.220655	0.717380	1.480115	-3.495634	-0.175883	-0.188077	-0.377164	-0.889629
04560						34.679881	-9.756764	-0.644592	0.329073	0.745409	-3.221338	-0.188471	-0.178713	-0.382447	-0.886721
04561						34.557891	-8.785415	-2.526262	-0.456040	0.055653	-3.140546	-0.202657	-0.172000	-0.383236	-0.884577
04562						35.468733	-10.746540	-5.418412	-1.121587	-0.677629	-2.746544	-0.217006	-0.168461	-0.380031	-0.883236
04563						37.866016	-15.281200	-7.302443	-1.180001	-1.389620	-2.100813	-0.229882	-0.169300	-0.375046	-0.881948
04564						38.258690	-16.962636	-7.730131	-0.831518	-1.893414	-1.317584	-0.239857	-0.174225	-0.370357	-0.880312
04565						34.713874	-15.812836	-6.208660	-0.462786	-2.320773	-0.459316	-0.246548	-0.183012	-0.365912	-0.878538
04566						32.606252	-11.281969	-3.067109	-0.154222	-2.658412	0.170840	-0.250685	-0.194943	-0.361767	-0.876515
04567						28.308063	-0.830356	1.821564	-0.612614	-2.835774	0.412854	-0.254561	-0.207319	-0.355088	-0.875289
04568						-2.231614	19.640472	25.243938	-1.643495	-4.455874	3.573147	-0.248313	-0.231228	-0.338306	-0.877737
04569						-44.827577	11.050957	40.449768	-1.342935	-5.290422	4.993957	-0.236717	-0.261052	-0.319844	-0.879498
04570						32.360442	3.854562	2.417649	-4.668347	-4.228497	0.774844	-0.245994	-0.275362	-0.293075	-0.881912
04571						37.496690	-36.118012	5.419186	0.816565	-4.219452	3.891382	-0.233779	-0.300546	-0.286006	-0.879329
04572						10.786424	3.112076	27.106872	-1.483454	-2.819470	0.431747	-0.238059	-0.312028	-0.275317	-0.877592
04573						16.333514	45.286423	2.180257	-1.811905	0.082958	1.976626	-0.232064	-0.312190	-0.264356	-0.882496
04574						11.078090	11.670318	0.188054	-2.985975	-0.239665	2.714501	-0.224957	-0.313552	-0.246450	-0.889012
04575						14.238206	-8.997250	14.223525	-1.973820	-0.179900	0.536012	-0.225866	-0.312765	-0.236620	-0.891725
04576						1.382094	-6.618595	10.344917	-0.722541	0.345712	0.554588	-0.224057	-0.311327	-0.232727	-0.893707
04577						10.453216	15.827305	4.378185	-0.884816	-0.109583	-0.427283	-0.227456	-0.310314	-0.229312	-0.894083
04578						5.902682	0.713664	8.309033	-0.507652	0.157160	0.727810	-0.224757	-0.310132	-0.225894	-0.895698
04579						4.639336	2.652813	7.345344	-0.412618	0.031576	-0.187739	-0.226190	-0.309303	-0.224370	-0.896006
04580						6.086721	6.418937	7.184826	-0.271055	0.033850	0.077709	-0.226180	-0.309198	-0.222864	-0.896421
04581						4.087786	3.857991	7.097522	-0.141971	0.002028	-0.046811	-0.226595	-0.308966	-0.222301	-0.896536
04582						5.463494	6.295724	6.776035	-0.125959	-0.007073	-0.056997	-0.227011	-0.309055	-0.221607	-0.896572
04583						4.783564	5.282459	6.855433	-0.112504	0.041612	-0.013311	-0.227187	-0.308716	-0.221169	-0.896753
04584						4.490620	5.787200	6.839377	-0.137771	0.024559	-0.043956	-0.227527	-0.308664	-0.220441	-0.896863
04585						4.452243	6.329484	6.423080	-0.205650	0.068088	0.047576	-0.227544	-0.308167	-0.219520	-0.897256
04586						4.777103	6.140187	6.302143	-0.319972	0.087938	0.116698	-0.227375	-0.307796	-0.217805	-0.897844
04587						4.970122	5.059080	6.658993	-0.380703	0.116165	0.136208	-0.227211	-0.306979	-0.216015	-0.898597
04588						4.266212	5.523360	7.378970	-0.309858	0.086349	0.102285	-0.227092	-0.306608	-0.214367	-0.899148
04589						4.306666	4.987460	7.170504	-0.356252	0.053620	0.137545	-0.226951	-0.306099	-0.212613	-0.899774
04590						4.459955	5.463521	6.976157	-0.390963	0.094837	0.205076	-0.226486	-0.305700	-0.210453	-0.900534
04591						4.849236	5.219439	6.750883	-0.455637	0.122016	0.221783	-0.226043	-0.304857	-0.208197	-0.901455
04592						4.584615	5.136109	7.125614	-0.482825	0.138470	0.258607	-0.225430	-0.304207	-0.205590	-0.902425
04593						4.758399	4.704279	7.160837	-0.501030	0.166759	0.276932	-0.224760	-0.303164	-0.203092	-0.903509
04594						4.933102	3.979635	7.694819	-0.425659	0.139706	0.301107	-0.223866	-0.302608	-0.200678	-0.904456
04595						4.582220	3.487047	7.801592	-0.262213	0.104185	0.291939	-0.222827	-0.302125	-0.199164	-0.905208
04596						5.077488	5.094471	7.293966	-0.196257	0.059574	0.270377	-0.221808	-0.302151	-0.197738	-0.905762
04597						5.326271	5.628319	7.337873	-0.209703	0.004625	0.379930	-0.220389	-0.302263	-0.196216	-0.906402
04598						5.359038	4.871347	6.961347	-0.169066	-0.019136	0.527155	-0.218241	-0.302922	-0.194438	-0.907085
04599						4.957941	6.330581	6.519065	0.270366	-0.031324	0.654651	-0.214881	-0.303984	-0.194633	-0.907490
04600						5.572208	6.652936	7.158064	0.121433	-0.090364	0.913726	-0.210603	-0.305652	-0.193506	-0.908173
04601						5.264854	4.703091	7.525868	0.099350	-0.231267	0.937317	-0.206405	-0.307700	-0.192275	-0.908707
04602						4.318446	4.343175	8.754238	0.178486	-0.382618	0.944609	-0.202169	-0.310765	-0.191047	-0.908875
04603						4.444031	4.521545	9.231253	0.157155	-0.656864	0.930936	-0.198308	-0.314783	-0.189643	-0.908637
04604						4.784418	4.417870	9.824891	0.081948	-0.944262	0.985699	-0.194559	-0.320310	-0.187332	-0.907995
04605						4.098725	3.609626	10.766011	-0.048187	-1.355465	0.999786	-0.191349	-0.327333	-0.184182	-0.906816
04606						4.220499	3.811781	10.530818	-0.092094	-1.848383	0.939821	-0.188901	-0.336690	-0.180250	-0.904691
04607						4.207204	4.475838	10.956062	-0.054470	-2.348097	1.015524	-0.186490	-0.348138	-0.176056	-0.901679
04608						4.061925	3.663640	10.991559	-0.044889	-2.871861	1.079410	-0.184181	-0.362153	-0.171073	-0.897584
04609						4.107694	4.324171	11.211580	0.144339	-3.547152	1.101921	-0.181967	-0.379076	-0.166424	-0.891904
04610						4.544326	5.992249	10.827102	0.260407	-4.249588	1.260143	-0.179319	-0.399399	-0.161081	-0.884522
04611						4.840691	6.784945	10.445090	0.560709	-4.968048	1.590492	-0.175096	-0.423005	-0.155870	-0.875279
04612						4.599607	6.885076	10.733161	1.105914	-5.759211	2.018217	-0.168297	-0.450703	-0.151120	-0.863543
04613						3.895925	8.150245	13.976158	1.622648	-6.598614	2.442901	-0.158962	-0.482096	-0.146964	-0.848950
04614						4.114389	12.079017	11.679402	1.518610	-8.043741	3.112753	-0.147812	-0.519385	-0.139177	-0.830072
04615						7.574118	11.905789	6.518282	1.881650	-9.637038	4.894308	-0.129098	-0.563367	-0.126943	-0.806124
04616						7.588510	12.128985	14.425823	2.660950	-11.691696	5.614209	-0.106079	-0.614592	-0.113870	-0.773342
04617						0.372815	26.814981	17.347095	4.342701	-12.972033	7.889514	-0.069315	-0.669565	-0.099189	-0.732830
04618						19.668612	20.079838	11.943342	3.515521	-11.120495	7.297518	-0.036145	-0.713562	-0.083452	-0.694665
04619						45.923364	46.811991	18.531025	1.453060	-5.289489	5.728114	-0.013246	-0.734013	-0.067034	-0.675689
04620						18.048299	35.702101	24.165906	-3.016652	-2.179409	3.475516	-0.013304	-0.742083	-0.043914	-0.668736
04621						6.738986	5.416551	28.256174	0.366576	1.272835	2.301589	-0.003964	-0.738285	-0.036670	-0.673480
04622						-7.914393	10.649265	15.733928	2.016039	2.724103	2.752371	0.013205	-0.729394	-0.033393	-0.683151
04623						-9.477112	21.652078	14.577499	3.219621	3.749252	2.422596	0.033843	-0.716498	-0.035284	-0.695874
04624						-2.386168	28.951547	13.745013	2.272154	4.525807	1.254780	0.047072	-0.700222	-0.038028	-0.711356
04625						-7.160170	26.749000	10.233943	0.865283	4.834316	0.080179	0.051296	-0.682622	-0.039665	-0.727889
04626						-10.581179	19.015192	7.583696	0.290691	4.341335	-1.206894	0.048661	-0.666171	-0.043938	-0.742912
04627						-8.451564	14.450159	6.511292	0.393483	3.657626	-2.302137	0.042217	-0.651819	-0.052156	-0.755400
04628						-5.857681	12.810585	6.740406	0.651559	3.380532	-3.145423	0.033239	-0.637716	-0.064419	-0.766853
04629						-4.230876	10.938748	7.737953	0.696956	3.370513	-3.726135	0.022256	-0.623266	-0.078379	-0.777754
04630						-1.854701	8.617859	8.696649	0.727871	3.646712	-4.044060	0.010121	-0.606944	-0.093690	-0.789138
04631						1.120690	6.761385	10.540154	0.915799	4.123824	-4.235990	-0.001878	-0.588365	-0.109896	-0.801091
04632						4.260828	6.145032	11.705002	1.051738	4.864277	-4.423249	-0.013927	-0.565851	-0.127430	-0.814482
04633						5.439673	6.263910	12.034304	0.956535	5.676070	-4.325596	-0.025201	-0.539676	-0.143863	-0.829106
04634						4.360014	4.004217	11.107293	0.996620	6.198719	-3.965501	-0.034574	-0.510553	-0.159700	-0.844178
04635						4.090519	2.930306	10.685886	1.345243	6.343283	-3.690828	-0.041619	-0.480707	-0.175773	-0.858075
04636						5.601909	5.508168	10.782890	1.766891	6.326376	-3.647627	-0.047530	-0.450023	-0.193623	-0.870477
04637						6.818915	8.697264	10.867602	1.981603	6.226063	-3.700788	-0.053107	-0.419494	-0.211907	-0.881079
04638						7.489113	9.902727	11.595557	2.163600	5.946392	-3.852140	-0.059296	-0.389110	-0.231256	-0.889718
04639						8.146054	11.652302	12.045957	2.364919	5.447158	-4.117413	-0.066663	-0.360561	-0.251241	-0.895784
04640						9.002816	13.823574	12.684148	2.488185	4.511025	-4.318406	-0.075907	-0.335139	-0.271835	-0.898903
04641						13.703548	13.917131	13.438142	2.375428	3.563847	-4.540378	-0.087439	-0.313683	-0.291331	-0.899491
04642						20.488690	10.803718	13.488047	2.373967	2.913557	-4.815517	-0.101178	-0.294024	-0.310993	-0.898107
04643						25.271515	7.898794	13.206726	2.616805	2.288616	-4.879488	-0.115624	-0.277345	-0.330928	-0.894538
04644						30.784746	8.277197	13.769361	2.099482	2.031604	-4.793989	-0.130828	-0.261028	-0.348263	-0.890764
04645						35.815786	5.430383	11.157349	1.131183	2.224364	-4.467542	-0.145319	-0.243989	-0.360469	-0.888490
04646						38.080343	-1.333255	6.567657	0.640740	2.462629	-4.136146	-0.158486	-0.225660	-0.370240	-0.887064
04647						37.817515	-6.178324	0.951946	0.357660	2.350889	-3.755748	-0.170335	-0.208500	-0.377832	-0.885865
04648						35.777275	-10.278155	-2.642635	0.085646	1.753626	-3.223949	-0.181204	-0.194461	-0.383133	-0.884624
04649						35.398545	-11.881656	-4.597885	-0.297083	0.897859	-3.016363	-0.193078	-0.184410	-0.385516	-0.883228
04650						36.001810	-10.555933	-6.838932	-0.948847	0.025088	-2.763427	-0.206075	-0.177931	-0.383931	-0.882310
04651						37.630915	-14.045005	-8.873884	-1.244127	-0.788289	-2.058296	-0.217745	-0.176153	-0.379430	-0.881811
04652						39.380873	-19.316027	-8.959260	-1.137103	-1.391653	-1.318107	-0.227137	-0.178555	-0.374066	-0.881250
04653						37.622576	-19.570221	-6.899412	-0.721729	-1.887264	-0.440787	-0.233228	-0.185208	-0.369115	-0.880373
04654						35.056898	-14.823256	-3.828811	-0.577716	-2.176146	0.459484	-0.235675	-0.195094	-0.363543	-0.879905
04655						27.376323	-1.520759	-2.877523	-1.232253	-2.840312	2.553167	-0.230746	-0.210729	-0.352211	-0.882211
04656						-26.041023	10.574174	41.767493	-0.313166	-5.958049	8.363367	-0.204297	-0.251321	-0.334585	-0.884959
04657						18.044247	12.499648	27.662660	-3.867520	-2.777243	2.593211	-0.202241	-0.263894	-0.311255	-0.890269
04658						31.980275	-8.767274	-0.641678	-0.612485	-3.455196	4.675601	-0.187493	-0.286002	-0.298582	-0.891010
04659						10.360657	-15.673570	17.597107	-0.248588	-3.322504	1.673320	-0.185309	-0.303009	-0.291913	-0.888050
04660						24.475094	42.689996	7.611708	-1.641895	-0.536400	0.593645	-0.185909	-0.304961	-0.282979	-0.890145
04661						9.886360	18.746215	1.615105	-2.301699	-0.044260	2.884929	-0.176599	-0.307039	-0.268245	-0.895871
04662						9.895427	-7.586191	10.592021	-1.904206	-0.138955	0.718178	-0.176422	-0.307183	-0.258302	-0.898773
04663						5.228047	-1.395644	10.503888	-1.201712	0.200519	0.339255	-0.176469	-0.305644	-0.252550	-0.900921
04664						8.517204	5.078027	6.073474	-0.848216	0.241586	0.150307	-0.176741	-0.304255	-0.248493	-0.902465
04665						7.780687	8.409010	6.941211	-0.726285	0.136609	0.096237	-0.177229	-0.303105	-0.245185	-0.903660
04666						3.745578	-0.655720	8.106049	-0.545012	0.242576	0.325981	-0.176241	-0.302191	-0.242228	-0.904956
04667						5.681932	5.527368	7.212719	-0.352686	0.143677	-0.116385	-0.177115	-0.301079	-0.240931	-0.905502
04668						4.441245	5.261128	7.074949	-0.255812	0.128294	0.060690	-0.177035	-0.300610	-0.239571	-0.906034
04669						4.764630	5.087917	6.890993	-0.201602	0.117726	0.024239	-0.177076	-0.299917	-0.238722	-0.906480
04670						5.275258	4.849689	7.187431	-0.178645	0.092797	0.027321	-0.177075	-0.299634	-0.237731	-0.906834
04671						4.164307	4.929016	7.296632	-0.053174	0.063026	-0.010130	-0.177114	-0.299280	-0.237557	-0.906989
04672						4.697607	6.470663	6.437566	-0.124865	0.079351	0.041447	-0.176986	-0.299119	-0.236777	-0.907271
04673						5.217527	6.085125	6.500989	-0.267377	0.159539	0.118215	-0.176649	-0.298289	-0.235524	-0.907936
04674						4.824095	4.896352	6.978549	-0.302542	0.200192	0.087865	-0.176432	-0.297474	-0.233979	-0.908644
04675						4.817935	5.221621	6.947912	-0.299955	0.233142	0.036070	-0.176430	-0.296183	-0.232764	-0.909378
04676						4.392166	5.578244	7.069284	-0.298219	0.301126	0.074792	-0.176149	-0.294894	-0.231347	-0.910213
04677						4.173172	6.203279	6.902027	-0.300871	0.268513	0.124661	-0.175704	-0.293542	-0.230025	-0.911071
04678						4.917531	6.145181	6.759405	-0.400909	0.281527	0.265306	-0.174728	-0.292464	-0.227845	-0.912152
04679						4.599069	5.141981	7.145660	-0.383719	0.222138	0.293064	-0.173689	-0.291440	-0.225855	-0.913173
04680						4.513368	5.437003	7.212491	-0.320299	0.139175	0.277904	-0.172699	-0.291090	-0.223900	-0.913953
04681						4.912395	4.832997	7.412641	-0.336758	0.083322	0.345494	-0.171506	-0.290795	-0.221925	-0.914753
04682						4.899685	2.861154	7.811588	-0.213900	0.040130	0.356091	-0.170114	-0.291070	-0.220256	-0.915329
04683						4.333280	3.960068	7.620578	0.006615	-0.060281	0.252904	-0.169003	-0.291621	-0.219861	-0.915454
04684						5.840226	6.791100	6.472356	-0.106665	-0.079283	0.261248	-0.168024	-0.292426	-0.218713	-0.915653
04685						4.450469	5.908935	6.921322	-0.027156	0.011106	0.646327	-0.165081	-0.293049	-0.217647	-0.916243
04686						5.440854	5.807879	6.169036	0.187872	-0.092482	0.712580	-0.161612	-0.294643	-0.217179	-0.916461
04687						6.008361	5.718499	6.727645	0.141575	-0.017456	0.911158	-0.157236	-0.295815	-0.216464	-0.917013
04688						4.941633	4.775097	7.039228	0.156547	-0.108247	0.883480	-0.153038	-0.297629	-0.215584	-0.917344
04689						4.251498	4.815671	7.988726	0.167236	-0.129562	0.864660	-0.148951	-0.299272	-0.214957	-0.917629
04690						3.981253	4.212622	9.080227	0.065321	-0.299273	0.869659	-0.145153	-0.301862	-0.213526	-0.917724
04691						4.516009	3.464184	9.671410	0.050367	-0.589958	0.818527	-0.141939	-0.305467	-0.212085	-0.917367
04692						4.193237	3.939515	10.270609	-0.003722	-0.994015	0.746304	-0.139546	-0.311037	-0.210008	-0.916340
04693						4.332567	4.208196	10.467000	-0.130850	-1.432910	0.746134	-0.137821	-0.318276	-0.207235	-0.914745
04694						4.152630	3.891265	10.614770	-0.156218	-1.908495	0.777173	-0.136461	-0.327902	-0.203742	-0.912331
04695						4.254084	3.815801	10.601131	-0.085174	-2.434444	0.803905	-0.135393	-0.339733	-0.200350	-0.908906
04696						4.396126	4.208611	10.651527	-0.005845	-2.976723	0.837507	-0.134540	-0.354258	-0.196640	-0.904286
04697						4.550626	4.697626	10.743858	0.034058	-3.560986	0.911934	-0.133826	-0.371210	-0.192743	-0.898412
04698						4.520118	5.410792	10.252752	0.233978	-4.180546	1.051586	-0.132641	-0.391258	-0.188773	-0.890892
04699						4.510878	6.220678	9.777083	0.625282	-4.801338	1.306829	-0.130079	-0.414161	-0.185751	-0.881502
04700						4.575808	6.642500	11.685813	1.173219	-5.479397	1.680417	-0.125246	-0.440623	-0.183573	-0.869750
04701						3.581434	8.036410	14.224303	1.432521	-6.493944	1.972369	-0.119391	-0.471293	-0.181273	-0.854850
04702						5.148896	11.182568	8.749082	1.903744	-7.843177	2.763759	-0.110057	-0.508154	-0.177828	-0.835490
04703						3.485892	11.926282	13.479279	2.568558	-8.770063	3.891346	-0.094937	-0.549014	-0.173619	-0.812051
04704						5.471461	11.511182	7.522555	2.781431	-11.817439	5.419975	-0.075309	-0.601866	-0.163845	-0.777972
04705						8.622893	15.322332	16.198407	4.967711	-13.609022	6.443401	-0.046233	-0.659993	-0.158135	-0.732983
04706						14.927860	21.343410	13.054436	4.071545	-12.607536	7.350929	-0.015666	-0.711059	-0.145268	-0.687784
04707						33.651887	56.077186	19.267582	1.995959	-6.656801	7.391564	0.012026	-0.738544	-0.125141	-0.662380
04708						20.070437	39.779060	20.742386	-4.709036	-4.524077	5.034372	0.008483	-0.756314	-0.091057	-0.647785
04709						12.663095	8.339467	28.442353	-2.451763	-1.249431	1.796262	0.004462	-0.761176	-0.076353	-0.644020
04710						7.521657	6.894143	20.635112	1.182681	2.070035	1.220197	0.013652	-0.754803	-0.075446	-0.651455
04711						-9.744881	19.008870	16.620409	1.819389	3.218182	2.258028	0.029086	-0.744867	-0.072602	-0.662614
04712						-8.958042	14.154618	14.240928	2.092917	3.709368	2.165239	0.045338	-0.732725	-0.070931	-0.675298
04713						1.684724	22.286222	13.171553	1.914846	4.646697	1.395945	0.058700	-0.716844	-0.071192	-0.691101
04714						-5.608106	23.064169	10.723500	0.942900	5.243380	0.296213	0.064874	-0.698140	-0.071907	-0.709381
04715						-9.061397	17.966791	9.082129	0.304376	5.015274	-0.833250	0.064767	-0.679723	-0.074233	-0.726823
04716						-6.871387	13.829029	7.530489	0.148622	4.643552	-1.872095	0.060082	-0.661693	-0.079760	-0.743095
04717						-3.249013	11.654013	7.174077	0.517038	4.692215	-2.863476	0.053007	-0.642706	-0.089701	-0.758994
04718						-1.526007	11.827707	7.332239	0.538944	4.897421	-3.544620	0.043363	-0.621859	-0.101986	-0.775248
04719						-0.899338	10.359230	7.281792	0.288763	5.166446	-3.801015	0.032146	-0.599509	-0.113738	-0.791593
04720						0.228023	6.307302	7.784516	0.429537	5.422545	-3.856922	0.021134	-0.575180	-0.126281	-0.807945
04721						1.800220	4.372667	8.480829	0.812135	5.595515	-3.933945	0.011106	-0.549663	-0.140196	-0.823464
04722						3.509186	5.464371	9.553606	1.162951	5.861015	-3.957511	0.002008	-0.522034	-0.155665	-0.838597
04723						4.932150	6.562599	10.338122	1.380785	6.134175	-3.889345	-0.005915	-0.492916	-0.171425	-0.853002
04724						6.130698	7.106042	11.023919	1.575244	6.342817	-3.870646	-0.014577	-0.462165	-0.187420	-0.866640
04725						6.884850	8.063556	11.419028	1.829087	6.414844	-3.959923	-0.021478	-0.430443	-0.204810	-0.878812
04726						7.145087	9.729572	11.975719	2.055150	6.304776	-4.075511	-0.028996	-0.398191	-0.223225	-0.889255
04727						8.141548	11.339078	12.824414	2.302989	5.980688	-4.246521	-0.036585	-0.366899	-0.242608	-0.897323
04728						10.260031	12.955079	12.874681	2.432089	5.443810	-4.439125	-0.045405	-0.336867	-0.262738	-0.903010
04729						13.271650	12.065230	12.865637	2.529946	4.409981	-4.469005	-0.055491	-0.311464	-0.282527	-0.905588
04730						21.116575	10.483613	13.559648	2.533792	3.608553	-4.664501	-0.066978	-0.288477	-0.302466	-0.905986
04731						29.524624	10.230251	12.382743	2.220953	3.263759	-4.958204	-0.081252	-0.266788	-0.320609	-0.905225
04732						32.010709	7.350052	9.619054	1.712202	2.936997	-4.674111	-0.094200	-0.245781	-0.336029	-0.904324
04733						34.358659	2.553978	6.082630	1.257907	2.518557	-4.318087	-0.107903	-0.227643	-0.348090	-0.902978
04734						38.564177	-0.653312	1.715558	0.889734	2.082863	-4.068139	-0.120746	-0.210952	-0.358001	-0.901529
04735						40.395859	-4.061909	-2.724566	0.585214	1.575946	-3.670041	-0.133814	-0.197583	-0.365383	-0.899750
04736						40.193197	-8.633091	-4.430099	0.280078	0.990008	-3.253499	-0.146111	-0.187068	-0.370593	-0.897952
04737						38.355055	-11.694878	-5.266685	-0.126960	0.370378	-2.982613	-0.158905	-0.179757	-0.373037	-0.896259
04738						36.973759	-12.813552	-5.964064	-0.608751	-0.283411	-2.550054	-0.171256	-0.175656	-0.372412	-0.895056
04739						38.487818	-15.132532	-6.819827	-0.849614	-0.798637	-2.066158	-0.182711	-0.174635	-0.369711	-0.894110
04740						37.645741	-16.143681	-7.345881	-0.722240	-1.218867	-1.314672	-0.191328	-0.176992	-0.366516	-0.893159
04741						35.180427	-16.407750	-6.250644	-0.459149	-1.625741	-0.482243	-0.196847	-0.182914	-0.363319	-0.892072
04742						34.922304	-11.035832	-4.911093	-0.288298	-2.208773	0.368116	-0.199174	-0.193201	-0.359478	-0.890942
04743						11.050033	3.351189	5.495305	-3.549824	-3.740158	3.699953	-0.192732	-0.212869	-0.336185	-0.896951
04744						-9.198247	-4.953779	45.580869	-1.309969	-6.404435	6.095340	-0.176083	-0.250155	-0.317456	-0.897574
04745						38.029547	16.455631	17.851664	-2.941712	-2.696851	0.835642	-0.180243	-0.260934	-0.300765	-0.899425
04746						1.978320	-13.018008	5.208232	0.316282	-3.051949	4.453781	-0.163408	-0.281490	-0.293539	-0.898831
04747						5.843818	-14.355412	14.403576	-0.374177	-3.327910	1.524580	-0.161927	-0.298321	-0.286938	-0.895796
04748						28.672050	41.425053	6.763275	-2.604588	-0.609846	0.755677	-0.162532	-0.300006	-0.273568	-0.899300
04749						14.733194	19.671982	2.832104	-2.077928	0.082434	2.548665	-0.154042	-0.301383	-0.260427	-0.904222
04750						4.796827	-10.929731	12.567571	-1.716180	-0.173084	0.467292	-0.153864	-0.301464	-0.251832	-0.906656
04751						7.627659	-3.998947	10.366157	-1.169207	0.250390	0.389911	-0.153528	-0.299906	-0.246126	-0.908795
04752						8.615315	9.389944	5.443333	-0.623919	0.116005	-0.183586	-0.154686	-0.298801	-0.243536	-0.909660
04753						6.155032	5.724030	7.366981	-0.646677	0.253449	0.488198	-0.153110	-0.297730	-0.240053	-0.911202
04754						4.334170	0.313734	7.805024	-0.459117	0.230992	0.142282	-0.152399	-0.296628	-0.237813	-0.912267
04755						5.408923	7.325387	7.207292	-0.305449	0.166329	0.054362	-0.152394	-0.295692	-0.236460	-0.912923
04756						5.328033	2.826288	7.329452	-0.289092	0.134769	0.188626	-0.151264	-0.295191	-0.234860	-0.913686
04757						4.758446	4.494793	7.589806	-0.076029	0.087983	-0.058480	-0.151528	-0.294654	-0.234660	-0.913867
04758						4.142643	6.217318	6.909413	-0.074496	0.076176	0.048508	-0.151115	-0.294492	-0.234133	-0.914123
04759						4.700085	6.943248	6.492768	-0.160963	0.096414	0.126122	-0.150650	-0.294069	-0.233278	-0.914554
04760						5.369048	5.736870	6.176202	-0.335247	0.140005	0.224298	-0.149678	-0.293604	-0.231366	-0.915349
04761						4.817657	6.089067	6.767374	-0.358767	0.186663	0.113868	-0.149455	-0.292603	-0.229691	-0.916127
04762						4.340858	5.126711	7.672434	-0.451136	0.152094	0.224101	-0.148737	-0.292013	-0.227240	-0.917043
04763						4.545335	4.574567	7.327604	-0.336136	0.089675	0.090382	-0.148699	-0.291445	-0.225627	-0.917628
04764						4.734468	5.909695	7.177993	-0.387205	0.074907	0.099936	-0.148448	-0.291087	-0.223611	-0.918275
04765						4.904709	5.272406	7.117777	-0.416143	0.087059	0.160088	-0.148209	-0.290548	-0.221525	-0.918990
04766						4.588624	5.553066	7.396331	-0.403417	0.056291	0.190733	-0.147663	-0.290377	-0.219274	-0.919672
04767						5.132080	5.092504	7.334377	-0.446304	0.026985	0.303047	-0.146876	-0.290246	-0.216794	-0.920426
04768						5.460795	4.153554	7.288616	-0.354242	0.008227	0.384404	-0.145326	-0.290516	-0.214470	-0.921131
04769						4.671442	4.142109	7.099101	0.003406	-0.024807	0.539650	-0.142850	-0.291202	-0.213677	-0.921486
04770						4.431040	6.626378	6.901980	0.475664	-0.154954	0.692965	-0.139006	-0.293177	-0.214572	-0.921240
04771						6.713520	4.966095	6.645851	0.298081	-0.076502	1.007438	-0.133997	-0.294805	-0.214406	-0.921502
04772						5.912192	3.218969	6.567295	0.451750	-0.109175	0.883318	-0.129181	-0.296718	-0.214952	-0.921448
04773						4.821941	4.443659	7.263297	0.511980	-0.132992	0.752789	-0.125083	-0.298460	-0.216099	-0.921183
04774						4.409861	4.949859	7.583033	0.444826	-0.165215	0.769601	-0.120864	-0.300490	-0.216733	-0.920937
04775						5.030283	4.221628	7.717014	0.329677	-0.214679	0.759432	-0.117091	-0.302490	-0.216971	-0.920713
04776						4.505005	3.590395	8.461104	0.249297	-0.290788	0.697020	-0.113649	-0.304889	-0.216728	-0.920410
04777						4.352574	3.673317	8.680994	0.151079	-0.500552	0.583180	-0.111265	-0.307900	-0.216241	-0.919814
04778						4.781230	4.022698	8.770331	0.068900	-0.711953	0.523312	-0.109470	-0.311956	-0.215161	-0.918915
04779						4.673329	4.223905	9.081397	-0.018664	-0.950622	0.501405	-0.108205	-0.316840	-0.213762	-0.917720
04780						4.769278	4.297008	9.217592	-0.087859	-1.280168	0.502820	-0.107348	-0.323369	-0.211670	-0.916027
04781						4.827343	4.488673	9.211536	-0.103776	-1.616270	0.524423	-0.106809	-0.331252	-0.209464	-0.913777
04782						4.901320	4.925689	9.475039	-0.092593	-2.008320	0.578616	-0.106363	-0.341131	-0.206803	-0.910796
04783						5.034456	5.083250	9.572925	-0.028724	-2.437298	0.700217	-0.105724	-0.352904	-0.204156	-0.906974
04784						4.957855	5.005297	9.385733	0.057066	-2.878095	0.835297	-0.104774	-0.366967	-0.201182	-0.902155
04785						5.036718	4.821088	9.401276	0.137399	-3.309461	0.943831	-0.103567	-0.382855	-0.198298	-0.896311
04786						4.923783	4.585734	9.965668	0.295161	-3.798345	1.015255	-0.102246	-0.401127	-0.195442	-0.889070
04787						5.100856	5.356861	9.551962	0.579180	-4.384997	1.144428	-0.100245	-0.421921	-0.193420	-0.880070
04788						5.270353	6.786326	9.311725	1.070546	-4.927897	1.442528	-0.096480	-0.445555	-0.192289	-0.869021
04789						5.388533	8.161389	10.306091	1.456805	-5.552980	1.917288	-0.090190	-0.472014	-0.191571	-0.855785
04790						5.346713	9.720715	13.865345	1.239821	-6.449778	2.578465	-0.082457	-0.502489	-0.187497	-0.839971
04791						3.715531	13.204685	10.956951	1.264456	-7.908444	3.480130	-0.071995	-0.538990	-0.180616	-0.819564
04792						4.458744	12.399001	11.290587	1.784129	-9.863114	4.817795	-0.056344	-0.583659	-0.170851	-0.791820
04793						6.051151	14.518821	9.699542	2.732622	-12.336981	6.139717	-0.034472	-0.637026	-0.159852	-0.753297
04794						11.806933	23.588950	15.714672	3.171128	-12.228912	7.697839	-0.005091	-0.688058	-0.144546	-0.711096
04795						33.267960	33.555781	17.620585	2.002649	-8.015140	6.996266	0.020881	-0.720633	-0.127177	-0.681232
04796						28.263798	42.302057	16.394124	-2.997452	-4.685755	5.317326	0.025202	-0.739760	-0.098098	-0.665204
04797						14.691609	14.544311	20.734408	-2.788173	-2.021740	3.267835	0.024763	-0.748225	-0.076953	-0.658502
04798						9.958546	-0.433302	26.519918	2.277245	1.393938	2.622129	0.042409	-0.744202	-0.074405	-0.662442
04799						-2.938229	20.400111	16.061827	2.760537	2.997885	3.197708	0.064374	-0.734623	-0.070976	-0.671676
04800						-7.459301	24.708843	15.189620	2.421539	4.030953	2.790791	0.084058	-0.720951	-0.067560	-0.684543
04801						-1.433456	25.141339	12.373453	1.313024	4.720060	1.704732	0.096194	-0.704574	-0.063889	-0.700172
04802						-4.541798	23.658788	9.213671	0.298530	5.054458	0.423393	0.100323	-0.686544	-0.061108	-0.717537
04803						-9.245317	18.308673	6.627285	-0.235114	4.560149	-0.774278	0.098109	-0.669876	-0.060605	-0.733463
04804						-8.668195	13.563616	5.681390	-0.165611	3.990743	-1.827798	0.091871	-0.654498	-0.064212	-0.747709
04805						-5.673871	11.718811	5.199103	0.159880	3.770701	-2.788471	0.083160	-0.639248	-0.072171	-0.761077
04806						-4.230044	11.441462	5.497909	0.205484	3.695638	-3.400257	0.071940	-0.623550	-0.082322	-0.774101
04807						-3.021842	9.363278	5.984180	0.192189	3.785243	-3.750006	0.059564	-0.607061	-0.093352	-0.786902
04808						-0.764775	7.725655	7.040681	0.279182	4.041011	-4.026606	0.046174	-0.588812	-0.105536	-0.800019
04809						1.357986	7.238689	8.057055	0.412673	4.401360	-4.237574	0.032747	-0.568596	-0.118582	-0.813366
04810						2.798477	6.763506	9.094108	0.682657	4.880486	-4.328493	0.019530	-0.545622	-0.132889	-0.827198
04811						3.937483	7.052533	9.577138	0.862412	5.392872	-4.308617	0.007644	-0.520038	-0.147588	-0.841260
04812						4.760540	7.673123	10.008301	0.976745	5.781561	-4.158222	-0.002873	-0.492027	-0.162508	-0.855274
04813						5.440603	7.637815	10.013081	1.199114	6.009079	-4.016969	-0.012206	-0.462752	-0.177481	-0.868454
04814						6.108066	8.725460	10.932081	1.603480	6.070701	-4.033201	-0.020421	-0.432303	-0.194330	-0.880303
04815						7.435982	10.946634	12.045693	1.939220	6.013615	-4.219061	-0.028930	-0.401621	-0.212444	-0.890354
04816						8.623602	13.508969	13.315030	2.112940	5.860685	-4.484950	-0.038195	-0.370456	-0.231846	-0.898638
04817						9.120824	14.134340	13.742528	2.196816	5.428120	-4.664921	-0.048754	-0.340819	-0.251218	-0.904630
04818						10.779223	12.568129	13.969421	2.440223	4.508215	-4.655650	-0.059732	-0.314613	-0.271429	-0.907622
04819						17.900777	11.189388	15.130655	2.775884	3.723759	-4.662147	-0.071422	-0.292043	-0.292314	-0.907834
04820						25.946079	10.910442	14.308555	2.910064	3.327793	-4.681098	-0.083295	-0.270611	-0.313660	-0.906338
04821						29.999760	11.382742	12.705865	2.660978	2.925392	-4.406771	-0.095026	-0.251428	-0.332753	-0.903897
04822						33.813815	9.950181	10.187978	1.942958	2.727100	-4.229327	-0.106917	-0.232555	-0.348249	-0.901781
04823						35.464040	5.107266	5.283716	1.338059	2.419374	-3.985136	-0.119071	-0.215349	-0.360099	-0.899875
04824						37.350849	-0.441009	1.728462	1.059954	1.974520	-3.895083	-0.131679	-0.199749	-0.370325	-0.897564
04825						37.657988	-4.084601	-1.310914	0.676321	1.454552	-3.715265	-0.144942	-0.186741	-0.377947	-0.895140
04826						35.492589	-8.589915	-3.404144	0.294864	0.731216	-3.332365	-0.158018	-0.177171	-0.382980	-0.892730
04827						34.461655	-11.453415	-4.707818	-0.254992	-0.130999	-3.079776	-0.172208	-0.171629	-0.384416	-0.890569
04828						35.474180	-11.934156	-6.587876	-0.938642	-0.841010	-2.732337	-0.186661	-0.169209	-0.381890	-0.889205
04829						38.212379	-15.225456	-8.554202	-1.249829	-1.325133	-1.906986	-0.198696	-0.170272	-0.376673	-0.888620
04830						39.785587	-19.516300	-10.632408	-0.817754	-1.622813	-0.998177	-0.206809	-0.174807	-0.372283	-0.887737
04831						34.750701	-18.598368	-8.686530	-0.359547	-2.171034	-0.124403	-0.211690	-0.183823	-0.368525	-0.886333
04832						31.629239	-13.211237	-4.540042	-0.330642	-2.627722	0.449651	-0.214827	-0.196076	-0.363792	-0.884906
04833						27.942763	-5.900454	-0.444327	-0.716581	-2.813827	0.958041	-0.216370	-0.209468	-0.356614	-0.884383
04834						15.271356	9.296007	9.842723	-1.481766	-3.648925	1.686833	-0.216980	-0.227193	-0.344167	-0.884789
04835						-67.140722	33.350727	58.065776	1.363626	-6.572500	8.597090	-0.188386	-0.272176	-0.332792	-0.882995
04836						-0.680578	7.563352	18.210507	-5.038342	-2.424298	1.704960	-0.191723	-0.280988	-0.305714	-0.889284
04837						63.383413	-41.552117	-15.031482	-1.226864	-5.047431	5.537030	-0.176395	-0.310502	-0.287420	-0.888743
04838						43.912816	-1.110934	29.844751	-4.017703	-1.794547	-0.590197	-0.187939	-0.314232	-0.268626	-0.890942
04839						7.215612	55.769083	8.455423	1.235780	0.795188	1.660157	-0.177511	-0.314053	-0.272247	-0.892044
04840						-0.629960	-1.856786	1.427045	-2.390239	-0.012709	2.475149	-0.170351	-0.315545	-0.257453	-0.897290
04841						16.992517	-3.220845	10.553839	-1.836577	-0.240529	-0.253318	-0.174676	-0.314712	-0.249391	-0.899027
04842						2.356645	-2.192804	8.674700	-0.693344	0.366441	0.615920	-0.172706	-0.313470	-0.245398	-0.900938
04843						9.478522	9.838431	5.505126	-0.898267	0.181795	-0.094670	-0.174304	-0.311748	-0.241647	-0.902241
04844						5.264432	4.819747	6.081592	-0.712613	0.366177	0.423462	-0.173234	-0.310231	-0.237860	-0.903974
04845						5.117377	6.812936	6.704602	-0.746559	0.291110	0.186349	-0.173191	-0.308479	-0.234439	-0.905474
04846						5.753693	1.477230	8.309247	-0.668394	0.244741	0.425620	-0.172180	-0.307533	-0.230741	-0.906938
04847						4.131604	2.333267	8.430787	-0.275459	0.096267	-0.043140	-0.172676	-0.306801	-0.229634	-0.907372
04848						4.941505	6.289225	7.079426	-0.242680	0.089497	0.075628	-0.172788	-0.306517	-0.228256	-0.907794
04849						4.771865	5.481567	6.872233	-0.197024	0.130082	0.185914	-0.172086	-0.305960	-0.227182	-0.908385
04850						5.055015	6.503516	6.536532	-0.368728	0.149265	0.211383	-0.171702	-0.305446	-0.225079	-0.909154
04851						5.671239	4.072246	7.024752	-0.331359	0.172950	0.149425	-0.171323	-0.304535	-0.223485	-0.909924
04852						4.322164	4.415157	7.843931	-0.296721	0.111877	0.070973	-0.171507	-0.304090	-0.221892	-0.910428
04853						4.169080	5.847439	7.638387	-0.130495	0.004363	-0.020597	-0.171784	-0.303928	-0.221325	-0.910568
04854						5.194125	5.813678	7.059714	-0.254123	-0.058496	0.138176	-0.171784	-0.304364	-0.219679	-0.910820
04855						4.473619	4.703336	7.554323	-0.151011	-0.098936	0.137791	-0.171484	-0.304829	-0.218689	-0.910960
04856						4.021936	5.647072	7.475199	-0.100537	-0.202316	0.106181	-0.171551	-0.306013	-0.217668	-0.910795
04857						5.010419	5.380751	7.337105	-0.152143	-0.245165	0.226315	-0.171010	-0.307238	-0.216410	-0.910784
04858						5.691022	3.795087	7.392583	-0.110331	-0.306996	0.272438	-0.170443	-0.309064	-0.215002	-0.910606
04859						4.630656	4.587220	7.341100	0.063781	-0.420620	0.171856	-0.170003	-0.311210	-0.214660	-0.910038
04860						5.247712	6.234008	6.678594	0.002754	-0.459050	0.238693	-0.169577	-0.313784	-0.213683	-0.909463
04861						5.854254	5.954841	6.197995	-0.090003	-0.385876	0.434950	-0.168142	-0.315918	-0.212255	-0.909325
04862						5.370855	4.594807	6.462826	-0.132890	-0.278837	0.527245	-0.166416	-0.317857	-0.210360	-0.909407
04863						5.268194	3.756872	6.528904	-0.159986	-0.229459	0.466237	-0.164781	-0.319250	-0.208691	-0.909602
04864						5.519178	4.392242	6.440658	-0.147125	-0.200461	0.367586	-0.163719	-0.320646	-0.207045	-0.909678
04865						5.272760	5.382027	6.530020	-0.144650	-0.160671	0.381239	-0.162373	-0.321645	-0.205635	-0.909886
04866						5.193285	5.161919	6.638258	-0.201301	-0.115423	0.464935	-0.160864	-0.322705	-0.203655	-0.910225
04867						5.413420	4.560029	6.703614	-0.153444	-0.098626	0.505634	-0.158900	-0.323537	-0.202052	-0.910631
04868						5.476360	4.287322	6.787774	-0.129325	-0.104054	0.494859	-0.157122	-0.324625	-0.200358	-0.910927
04869						5.304424	4.097095	7.136125	-0.086944	-0.126757	0.456217	-0.155302	-0.325584	-0.199112	-0.911170
04870						5.266026	4.230118	7.472112	-0.039829	-0.209443	0.427863	-0.153787	-0.327148	-0.197849	-0.911142
04871						5.142562	4.461551	7.843326	-0.024303	-0.314507	0.431968	-0.152160	-0.328982	-0.196779	-0.910986
04872						4.784859	4.307388	8.035771	-0.112876	-0.445122	0.400324	-0.151119	-0.331528	-0.195044	-0.910610
04873						5.046707	4.362178	8.245156	-0.091604	-0.621425	0.398045	-0.150055	-0.334668	-0.193487	-0.909969
04874						5.020631	4.420527	8.380035	-0.128720	-0.818646	0.385815	-0.149464	-0.338873	-0.191414	-0.908948
04875						4.955939	4.566226	8.686394	-0.140850	-1.065097	0.393181	-0.148924	-0.343972	-0.189299	-0.907563
04876						5.321666	4.740731	8.633439	-0.142447	-1.342910	0.448992	-0.148555	-0.350578	-0.186649	-0.905643
04877						5.370907	4.739473	8.496202	-0.113764	-1.588902	0.542358	-0.147767	-0.358175	-0.183986	-0.903341
04878						5.207669	4.693291	8.852989	-0.079357	-1.866707	0.630236	-0.146926	-0.367304	-0.180881	-0.900435
04879						5.473208	4.832712	8.867666	-0.049239	-2.212560	0.715764	-0.145776	-0.377845	-0.177697	-0.896887
04880						5.420518	5.247007	8.771453	0.114461	-2.583843	0.867931	-0.144097	-0.390436	-0.174438	-0.892394
04881						5.413098	5.624253	8.983186	0.364326	-3.010292	1.088198	-0.141129	-0.405022	-0.171737	-0.886874
04882						5.418619	5.972347	9.130341	0.737210	-3.496183	1.345541	-0.136783	-0.422300	-0.169548	-0.879890
04883						5.276058	6.325736	10.814709	1.286393	-4.094779	1.711832	-0.129964	-0.442525	-0.168736	-0.871097
04884						4.664259	7.558074	11.977936	1.633732	-5.091650	2.000929	-0.121999	-0.467426	-0.167809	-0.859343
04885						5.514961	9.595183	9.922463	2.134340	-6.282629	2.607438	-0.110997	-0.497601	-0.166935	-0.843923
04886						6.173721	10.031437	8.801775	2.612704	-7.370072	3.652475	-0.095234	-0.532857	-0.164393	-0.824602
04887						7.936008	10.017241	9.351174	2.746615	-9.198720	4.450860	-0.076996	-0.574979	-0.159239	-0.798820
04888						5.149659	12.154290	12.172891	3.084816	-10.671506	5.204962	-0.055768	-0.621927	-0.151969	-0.766161
04889						3.018929	13.775539	14.487206	2.874235	-10.472679	5.677605	-0.032943	-0.665961	-0.142112	-0.731584
04890						8.072659	23.246485	11.827252	1.567303	-8.199353	6.165562	-0.011002	-0.699743	-0.125589	-0.703183
04891						15.790658	33.070525	9.656899	-0.874522	-6.473851	5.536369	0.001347	-0.725280	-0.102666	-0.680755
04892						10.346492	18.169847	8.862884	-2.240732	-5.958515	5.267521	0.008081	-0.747674	-0.075824	-0.659674
04893						20.540024	-1.643878	15.668214	-0.570884	-3.843383	2.554872	0.012915	-0.761135	-0.064511	-0.645248
04894						21.862816	6.187266	25.278942	3.878953	0.786277	0.533831	0.029642	-0.758364	-0.074881	-0.646837
04895						8.512755	29.626946	21.294693	2.351255	4.051385	0.180510	0.040649	-0.744770	-0.081164	-0.661119
04896						-4.286339	19.836563	13.335957	-0.524511	5.147894	1.216314	0.044791	-0.728043	-0.073845	-0.680070
04897						-7.508857	0.377951	8.897932	0.463476	5.629817	1.929842	0.055098	-0.709183	-0.067089	-0.699659
04898						-2.650446	1.905428	6.463013	2.501585	5.682460	1.166006	0.069936	-0.688583	-0.070167	-0.718358
04899						1.728783	11.729021	5.287077	3.236919	6.014040	-0.091925	0.082818	-0.665417	-0.079949	-0.737543
04900						-0.076851	17.421728	4.941868	2.033995	6.358152	-0.954165	0.088583	-0.640284	-0.088033	-0.757918
04901						-2.296940	15.141736	4.434155	0.658759	6.219371	-1.533451	0.087576	-0.615417	-0.092623	-0.777826
04902						-1.589920	7.852650	2.993822	0.425095	5.927941	-2.214043	0.083032	-0.590734	-0.098601	-0.796503
04903						-1.012749	4.386073	2.395052	1.023206	5.484721	-2.989689	0.076815	-0.566696	-0.109164	-0.813043
04904						-0.810214	6.948713	3.081225	1.389016	5.025125	-3.484108	0.069367	-0.543427	-0.122869	-0.827513
04905						0.522350	8.577219	4.819534	1.336115	4.701835	-3.627060	0.060853	-0.521029	-0.136549	-0.840345
04906						2.459700	7.208499	6.015471	1.293652	4.507386	-3.730003	0.051695	-0.498766	-0.150458	-0.852011
04907						3.631420	6.695181	7.655545	1.485694	4.359382	-3.891735	0.042085	-0.476655	-0.165282	-0.862387
04908						4.217840	6.412616	9.546320	1.845707	4.286472	-3.938172	0.033132	-0.454133	-0.181844	-0.871550
04909						6.542104	6.959038	11.143017	2.252483	4.360929	-3.863679	0.025367	-0.431020	-0.199606	-0.879622
04910						9.688940	7.917948	11.381565	2.456706	4.554924	-3.603315	0.019458	-0.406667	-0.217692	-0.887048
04911						11.162940	7.778378	11.236308	2.687407	4.589871	-3.204559	0.015705	-0.382364	-0.235560	-0.893344
04912						13.072334	6.759845	10.737539	2.935345	4.364206	-3.141694	0.012530	-0.358545	-0.254409	-0.898089
04913						16.255348	7.833305	10.099601	2.872799	3.905849	-3.441472	0.007199	-0.336289	-0.273107	-0.901260
04914						18.293922	7.456244	9.188615	2.449974	3.135128	-3.708393	-0.001001	-0.316667	-0.290340	-0.903008
04915						20.287889	3.536175	7.963968	2.086560	2.237452	-3.750241	-0.011370	-0.301035	-0.305612	-0.903244
04916						24.129633	1.091064	7.217438	1.811857	1.504935	-3.689999	-0.022897	-0.288428	-0.319510	-0.902329
04917						27.454207	0.370780	5.577959	1.427808	1.043626	-3.417824	-0.034576	-0.278366	-0.330930	-0.901000
04918						27.615812	-1.387608	3.485990	1.044371	0.662723	-3.016938	-0.045520	-0.270373	-0.340018	-0.899563
04919						26.943180	-3.253009	1.308586	0.803435	0.204721	-2.689028	-0.056165	-0.265033	-0.347270	-0.897779
04920						26.275802	-4.243463	-0.592378	0.431159	-0.226143	-2.668399	-0.067882	-0.261411	-0.352724	-0.895903
04921						24.952611	-3.744482	-1.490550	0.008730	-0.690839	-2.632078	-0.080862	-0.259838	-0.355926	-0.894014
04922						24.229372	-4.034051	-2.308973	-0.464421	-1.180575	-2.559312	-0.094935	-0.260307	-0.356708	-0.892181
04923						22.661397	-4.662131	-2.869103	-0.573326	-1.704760	-2.220002	-0.108603	-0.263649	-0.356185	-0.889846
04924						21.877026	-6.414653	-2.610034	-1.033194	-2.136754	-2.270330	-0.123807	-0.268535	-0.353392	-0.887511
04925						20.646903	-5.755922	-4.025435	-0.542577	-2.621304	-1.719896	-0.136772	-0.276753	-0.351617	-0.883780
04926						21.746857	-7.343256	-3.100143	-1.249787	-2.549425	-1.687995	-0.150392	-0.284234	-0.346628	-0.881159
04927						20.358840	-7.934817	-2.591408	-0.745023	-2.808930	-1.363905	-0.162298	-0.293644	-0.343118	-0.877327
04928						20.530897	-6.707332	-1.982176	-0.559504	-2.851512	-1.092275	-0.172778	-0.303924	-0.339863	-0.873081
04929						21.098695	-5.493699	-0.503933	-0.332795	-2.601163	-0.680928	-0.180650	-0.313802	-0.337158	-0.869033
04930						20.090607	-4.686636	0.722632	-0.446861	-2.131236	-0.196340	-0.185809	-0.322500	-0.333486	-0.866173
04931						18.578198	-3.586267	1.818147	-0.643769	-1.604784	0.357511	-0.187958	-0.329431	-0.328609	-0.864964
04932						15.949715	-3.674286	2.637062	-0.607972	-1.151730	0.865120	-0.187157	-0.335490	-0.323325	-0.864801
04933						15.489469	6.510487	13.038384	-1.647207	-0.397274	1.119798	-0.185701	-0.337454	-0.313926	-0.867808
04934						1.307180	32.849911	40.814819	-5.502665	1.390174	1.615912	-0.185800	-0.328966	-0.288307	-0.879851
04935						-51.344299	30.275096	21.234046	0.174238	0.858490	4.486603	-0.164483	-0.331727	-0.282407	-0.884957
04936						10.137085	-4.307502	7.240463	-2.910790	1.859655	3.164319	-0.152688	-0.325629	-0.265626	-0.894480
04937						58.078675	-26.027552	-6.063827	-2.604996	0.849636	1.354709	-0.149715	-0.321596	-0.252378	-0.900259
04938						11.996577	7.154031	13.402320	-0.522782	-0.176962	-2.132414	-0.160488	-0.319523	-0.253110	-0.898935
04939						-12.647738	5.770992	11.988135	0.371755	0.007046	0.554593	-0.157383	-0.320484	-0.253889	-0.898922
04940						5.166283	0.984368	4.869500	-0.225911	0.124466	0.132261	-0.157113	-0.320128	-0.252565	-0.899469
04941						15.110758	9.562006	6.775043	-0.369370	-0.133076	-0.437176	-0.159828	-0.319877	-0.251488	-0.899382
04942						-0.028149	2.399855	6.856274	-0.064494	-0.103543	-0.067433	-0.160488	-0.320430	-0.251025	-0.899197
04943						5.035485	7.319181	5.905999	-0.213485	-0.154087	-0.336291	-0.162526	-0.320523	-0.250469	-0.898952
04944						6.006960	7.383865	5.481492	-0.201795	0.065931	0.097479	-0.162449	-0.320402	-0.249265	-0.899344
04945						4.869197	4.496870	6.740815	-0.389774	0.004598	0.026407	-0.162940	-0.320091	-0.247463	-0.899863
04946						5.169678	5.050757	6.259915	-0.311732	0.032814	-0.096751	-0.163951	-0.319785	-0.246051	-0.900176
04947						4.531086	7.063926	6.508332	-0.309777	0.106988	-0.010713	-0.164354	-0.319031	-0.244751	-0.900724
04948						4.571571	5.286450	6.511582	-0.339736	0.200841	0.208955	-0.163824	-0.318315	-0.242865	-0.901584
04949						5.432303	4.884431	6.516467	-0.359001	0.259615	0.168974	-0.163309	-0.317050	-0.241179	-0.902575
04950						5.182021	4.405288	6.961048	-0.327978	0.243779	0.082159	-0.163279	-0.315991	-0.239582	-0.903377
04951						4.528420	4.779747	7.458909	-0.233465	0.156192	0.055503	-0.163201	-0.315156	-0.238556	-0.903954
04952						5.041481	4.446638	7.133181	-0.130213	0.116827	0.039292	-0.163206	-0.314778	-0.237815	-0.904280
04953						4.887522	5.259641	6.824140	-0.067666	0.089047	0.002219	-0.163188	-0.314317	-0.237567	-0.904509
04954						5.154825	5.553863	6.478622	-0.091801	0.083062	-0.010005	-0.163396	-0.314062	-0.237049	-0.904696
04955						4.462740	6.232826	6.766666	-0.103857	0.106876	0.036844	-0.163257	-0.313533	-0.236598	-0.905023
04956						5.109810	5.258113	6.741610	-0.189700	0.105785	0.129600	-0.162956	-0.313257	-0.235440	-0.905474
04957						4.845505	4.735218	6.787969	-0.122844	0.106909	0.068264	-0.162705	-0.312749	-0.234853	-0.905847
04958						4.781827	5.398320	6.874999	-0.106656	0.094565	0.059267	-0.162605	-0.312507	-0.234173	-0.906125
04959						4.898076	5.232843	6.827960	-0.130221	0.110926	0.100836	-0.162213	-0.312011	-0.233504	-0.906538
04960						4.573921	5.172251	6.901633	-0.112225	0.103011	0.088040	-0.161980	-0.311757	-0.232762	-0.906858
04961						4.751658	5.454265	6.859199	-0.138354	0.095267	0.106137	-0.161596	-0.311332	-0.232035	-0.907259
04962						4.934154	5.287424	6.764310	-0.161087	0.100989	0.121503	-0.161288	-0.311083	-0.231020	-0.907658
04963						4.643583	5.314290	6.921802	-0.151266	0.099966	0.108892	-0.160905	-0.310629	-0.230233	-0.908082
04964						4.800371	5.497232	6.858804	-0.183784	0.077090	0.131747	-0.160611	-0.310479	-0.229081	-0.908476
04965						5.048902	5.004989	6.821047	-0.194993	0.096404	0.154436	-0.160094	-0.310056	-0.228021	-0.908978
04966						4.781199	4.682001	7.148236	-0.165825	0.094797	0.133100	-0.159744	-0.309838	-0.226964	-0.909378
04967						4.855295	4.709725	7.112006	-0.126400	0.050312	0.095790	-0.159440	-0.309613	-0.226269	-0.909682
04968						4.894878	4.972047	6.976646	-0.093859	0.038049	0.079803	-0.159285	-0.309648	-0.225577	-0.909869
04969						4.962034	4.804109	6.940322	-0.095308	0.038018	0.076552	-0.159034	-0.309481	-0.225043	-0.910102
04970						4.824086	4.749017	7.041055	-0.068334	0.032829	0.057818	-0.158945	-0.309533	-0.224497	-0.910235
04971						4.850441	4.811358	6.997803	-0.061347	0.022938	0.040863	-0.158820	-0.309421	-0.224161	-0.910377
04972						4.710806	5.055300	7.011963	-0.035408	0.022640	0.029528	-0.158820	-0.309512	-0.223801	-0.910435
04973						4.867244	5.195756	6.886848	-0.056258	0.020010	0.052217	-0.158639	-0.309431	-0.223468	-0.910576
04974						4.958133	5.053523	6.857511	-0.076772	0.041641	0.067010	-0.158509	-0.309442	-0.222879	-0.910739
04975						4.811278	4.868873	6.977833	-0.086049	0.046373	0.064354	-0.158290	-0.309230	-0.222412	-0.910963
04976						4.845667	4.995054	7.012541	-0.090594	0.039946	0.052590	-0.158248	-0.309220	-0.221783	-0.911127
04977						4.859816	4.896231	7.008697	-0.089401	0.041865	0.064849	-0.158036	-0.309026	-0.221296	-0.911348
04978						4.734555	4.911733	7.093785	-0.079027	0.031254	0.055589	-0.157971	-0.309066	-0.220709	-0.911488
04979						4.826272	5.135150	6.998617	-0.087980	0.017627	0.054596	-0.157831	-0.308973	-0.220225	-0.911661
04980						4.867535	4.969603	7.024606	-0.100490	0.025657	0.076611	-0.157708	-0.309042	-0.219505	-0.911833
04981						4.788251	4.992702	7.034242	-0.100268	0.014114	0.061438	-0.157560	-0.308962	-0.218952	-0.912018
04982						4.881670	5.213623	6.941032	-0.124349	0.021204	0.074304	-0.157487	-0.309028	-0.218124	-0.912207
04983						4.863993	4.893233	7.042256	-0.147765	0.038520	0.095352	-0.157231	-0.308836	-0.217321	-0.912508
04984						4.858983	4.796247	7.012925	-0.136245	0.030727	0.075793	-0.157158	-0.308848	-0.216446	-0.912724
04985						5.020707	4.732753	6.975746	-0.150473	0.044174	0.076956	-0.156984	-0.308607	-0.215662	-0.913021
04986						4.876155	4.483856	7.099604	-0.132023	0.060313	0.060164	-0.156944	-0.308469	-0.214855	-0.913265
04987						4.765127	4.864141	7.092496	-0.112629	0.038569	0.024399	-0.156957	-0.308227	-0.214321	-0.913470
04988						4.833776	5.141137	7.122091	-0.116527	0.031192	0.050270	-0.156968	-0.308220	-0.213577	-0.913644
04989						4.833886	4.809702	7.134777	-0.118172	0.017547	0.071140	-0.156799	-0.308120	-0.212929	-0.913859
04990						4.929660	4.669371	7.014164	-0.112499	0.025043	0.054241	-0.156791	-0.308146	-0.212195	-0.914022
04991						4.888955	4.768278	7.058107	-0.102009	0.033368	0.039706	-0.156724	-0.307952	-0.211680	-0.914218
04992						4.915419	4.828866	7.018904	-0.112347	0.036031	0.034203	-0.156794	-0.307906	-0.210988	-0.914382
04993						4.943272	4.781666	7.038932	-0.122458	0.046038	0.035296	-0.156766	-0.307633	-0.210396	-0.914615
04994						4.844211	4.847298	7.118603	-0.124608	0.053018	0.027187	-0.156868	-0.307489	-0.209673	-0.914811
04995						4.821602	4.844086	7.100364	-0.126136	0.057228	0.038306	-0.156819	-0.307165	-0.209069	-0.915067
04996						4.873252	4.728713	7.151089	-0.127902	0.060009	0.048598	-0.156820	-0.307008	-0.208305	-0.915294
04997						4.874359	4.587294	7.143718	-0.117114	0.055922	0.041369	-0.156745	-0.306699	-0.207736	-0.915539
04998						4.886443	4.648196	7.138018	-0.104829	0.053525	0.028803	-0.156807	-0.306567	-0.207104	-0.915716
04999						4.946006	4.683216	7.133474	-0.111520	0.055829	0.027310	-0.156788	-0.306249	-0.206582	-0.915944
05000						4.839048	4.489553	7.211764	-0.090857	0.060681	0.031466	-0.156808	-0.306095	-0.206017	-0.916119
05001						4.807355	4.519633	7.206070	-0.084229	0.043311	0.011479	-0.156833	-0.305839	-0.205634	-0.916286
05002						4.787180	4.752078	7.202967	-0.068454	0.045059	0.007925	-0.156942	-0.305749	-0.205196	-0.916396
05003						4.700616	4.821601	7.248059	-0.072945	0.042642	0.019857	-0.156911	-0.305513	-0.204851	-0.916557
05004						4.688638	4.595664	7.287645	-0.073190	0.035877	0.027152	-0.156947	-0.305478	-0.204357	-0.916673
05005						4.809067	4.536651	7.230545	-0.055539	0.028624	0.016912	-0.156919	-0.305318	-0.204085	-0.916792
05006						4.781932	4.529157	7.185960	-0.036398	0.026283	0.011217	-0.156980	-0.305338	-0.203777	-0.916843
05007						4.797671	4.559896	7.251409	-0.024350	0.020789	0.006428	-0.156960	-0.305227	-0.203658	-0.916910
05008						4.795245	4.577144	7.215136	-0.004294	0.021429	0.008136	-0.156991	-0.305289	-0.203500	-0.916919
05009						4.740211	4.595719	7.305833	-0.000387	0.016578	0.007186	-0.156935	-0.305217	-0.203486	-0.916955
05010						4.756063	4.644320	7.219208	0.011811	0.001645	-0.003869	-0.157015	-0.305369	-0.203405	-0.916909
05011						4.865800	4.662606	7.208301	0.009721	0.006568	0.006063	-0.156959	-0.305350	-0.203432	-0.916919
05012						4.816482	4.618899	7.188003	0.010642	0.006337	0.003586	-0.157001	-0.305486	-0.203340	-0.916887
05013						4.845068	4.671543	7.180872	0.011688	0.005211	-0.003411	-0.156987	-0.305465	-0.203388	-0.916886
05014						4.812570	4.750648	7.204699	0.003418	0.009419	0.000880	-0.157048	-0.305576	-0.203271	-0.916864
05015						4.772926	4.747121	7.189160	-0.001313	0.016808	0.009658	-0.156982	-0.305505	-0.203249	-0.916904
05016						4.784249	4.675238	7.139316	-0.010261	0.014111	0.015512	-0.156991	-0.305597	-0.203052	-0.916915
05017						4.768536	4.696372	7.246360	-0.011404	0.018271	0.009028	-0.156942	-0.305511	-0.202986	-0.916967
05018						4.766246	4.624388	7.228790	-0.011406	0.018270	0.009028	-0.156976	-0.305575	-0.202799	-0.916981
05019						4.743580	4.653512	7.276633	-0.001419	0.011825	0.008369	-0.156921	-0.305526	-0.202774	-0.917013
05020						4.804304	4.626511	7.246288	0.002613	0.003408	0.006965	-0.156958	-0.305665	-0.202644	-0.916989
05021						4.808602	4.566875	7.248283	0.006849	0.004945	0.008143	-0.156899	-0.305653	-0.202652	-0.917001
05022						4.792951	4.604852	7.203978	0.015921	0.004073	0.001836	-0.156936	-0.305793	-0.202593	-0.916961
05023						4.733354	4.703222	7.253054	0.016365	0.004222	0.007566	-0.156866	-0.305792	-0.202645	-0.916962
05024						4.785433	4.617857	7.255694	0.017506	0.002731	0.009986	-0.156864	-0.305946	-0.202580	-0.916925
05025						4.788762	4.577798	7.219026	0.020719	0.002190	0.008287	-0.156786	-0.305958	-0.202650	-0.916919
05026						4.761318	4.687607	7.224876	0.025785	0.003858	-0.002428	-0.156826	-0.306099	-0.202644	-0.916867
05027						4.822221	4.751455	7.174569	0.012227	0.007662	0.007675	-0.156758	-0.306079	-0.202680	-0.916877
05028						4.741743	4.678157	7.235247	0.007048	0.014901	0.010717	-0.156754	-0.306166	-0.202579	-0.916871
05029						4.796729	4.640105	7.183945	0.001339	0.005796	0.009061	-0.156699	-0.306148	-0.202561	-0.916891
05030						4.826547	4.673231	7.215321	0.003866	0.012235	0.002543	-0.156739	-0.306235	-0.202457	-0.916878
05031						4.740471	4.677903	7.236244	0.001569	0.009876	0.005829	-0.156693	-0.306194	-0.202448	-0.916901
05032						4.796743	4.710455	7.204043	-0.002441	0.009751	0.005484	-0.156731	-0.306289	-0.202310	-0.916893
05033						4.803453	4.609425	7.170899	-0.000845	0.013752	0.005506	-0.156687	-0.306229	-0.202293	-0.916924
05034						4.785409	4.668790	7.201347	-0.000630	0.012493	0.010403	-0.156695	-0.306316	-0.202160	-0.916923
05035						4.742576	4.705914	7.221961	-0.005102	0.020759	0.006069	-0.156648	-0.306221	-0.202128	-0.916970
05036						4.902634	4.654789	7.178079	-0.008304	0.010088	0.010087	-0.156671	-0.306311	-0.201960	-0.916973
05037						4.741099	4.704504	7.223849	0.001104	0.018264	0.001843	-0.156636	-0.306228	-0.201961	-0.917007
05038						4.656053	4.690067	7.283029	-0.007167	0.008597	0.012508	-0.156646	-0.306327	-0.201794	-0.917009
05039						4.896486	4.623006	7.197475	-0.005661	0.010290	0.007179	-0.156605	-0.306281	-0.201750	-0.917041
05040						4.653946	4.618030	7.265366	0.003060	0.008896	0.004567	-0.156635	-0.306377	-0.201644	-0.917027
05041						4.819541	4.686679	7.184658	-0.004456	-0.002944	-0.002014	-0.156648	-0.306383	-0.201609	-0.917030
05042						4.787250	4.675674	7.227600	-0.000603	0.006617	0.004597	-0.156684	-0.306484	-0.201486	-0.917017
05043						4.739000	4.612625	7.245664	-0.002546	0.004772	0.004195	-0.156658	-0.306463	-0.201456	-0.917036
05044						4.795705	4.645393	7.213137	0.004009	0.000123	0.000348	-0.156712	-0.306592	-0.201356	-0.917005
05045						4.811498	4.697482	7.238089	0.000223	0.001410	0.000833	-0.156701	-0.306585	-0.201342	-0.917012
05046						4.801328	4.656619	7.234065	0.000570	-0.000745	0.001211	-0.156756	-0.306715	-0.201226	-0.916985
05047						4.772621	4.694345	7.221747	0.002423	-0.001207	-0.003740	-0.156765	-0.306717	-0.201227	-0.916983
05048						4.766077	4.701710	7.162767	-0.006533	-0.003892	0.002103	-0.156829	-0.306855	-0.201076	-0.916959
05049						4.800661	4.674710	7.196168	-0.007449	-0.000992	0.000515	-0.156833	-0.306853	-0.201024	-0.916970
05050						4.744030	4.641231	7.229105	-0.008376	-0.000761	0.002990	-0.156892	-0.306974	-0.200868	-0.916954
05051						4.768865	4.662904	7.239294	-0.002837	-0.007485	-0.003734	-0.156915	-0.307001	-0.200839	-0.916947
05052						4.811285	4.625239	7.219305	-0.001564	-0.009871	-0.005832	-0.157012	-0.307159	-0.200721	-0.916903
05053						4.804022	4.636791	7.271735	-0.000638	-0.010102	-0.008308	-0.157055	-0.307195	-0.200707	-0.916887
05054						4.751166	4.652962	7.248718	0.005916	-0.014751	-0.012156	-0.157173	-0.307374	-0.200631	-0.916823
05055						4.770942	4.664606	7.236829	0.001093	-0.020881	-0.006420	-0.157216	-0.307463	-0.200614	-0.916790
05056						4.808113	4.616437	7.195184	0.006360	-0.011932	-0.010491	-0.157322	-0.307629	-0.200540	-0.916732
05057						4.772253	4.666182	7.234948	0.004762	-0.015933	-0.010514	-0.157373	-0.307694	-0.200550	-0.916700
05058						4.804702	4.588340	7.210366	0.000181	-0.015313	-0.012071	-0.157498	-0.307868	-0.200449	-0.916642
05059						4.776199	4.626856	7.197403	0.007065	-0.010905	-0.017865	-0.157574	-0.307904	-0.200485	-0.916609
05060						4.740055	4.676902	7.237164	0.004889	-0.016832	-0.015034	-0.157707	-0.308084	-0.200410	-0.916542
05061						4.745081	4.707638	7.219191	0.002373	-0.017934	-0.016646	-0.157791	-0.308150	-0.200417	-0.916503
05062						4.797820	4.711231	7.202818	-0.005232	-0.012158	-0.005798	-0.157891	-0.308308	-0.200287	-0.916462
05063						4.761948	4.670501	7.262214	-0.005014	-0.013417	-0.000901	-0.157911	-0.308364	-0.200239	-0.916450
05064						4.803568	4.651220	7.204144	-0.006030	-0.012825	-0.007841	-0.158020	-0.308521	-0.200109	-0.916407
05065						4.822861	4.662018	7.193078	-0.007423	-0.006872	-0.005287	-0.158057	-0.308540	-0.200062	-0.916404
05066						4.757749	4.658679	7.240724	-0.005832	-0.005540	-0.001200	-0.158128	-0.308669	-0.199930	-0.916377
05067						4.816190	4.672523	7.245850	-0.009822	-0.014212	-0.003289	-0.158167	-0.308722	-0.199862	-0.916367
05068						4.834160	4.612144	7.216075	-0.009965	-0.002099	-0.001088	-0.158239	-0.308831	-0.199715	-0.916350
