// Start Time: Unknown
// Update Rate: 100.0Hz
// Filter Profile: human (46.1)
// Firmware Version: 4.4.0
PacketCounter	SampleTimeFine	Year	Month	Day	Second	Acc_X	Acc_Y	Acc_Z	Gyr_X	Gyr_Y	Gyr_Z	Quat_q0	Quat_q1	Quat_q2	Quat_q3
04097						9.645108	0.128211	-1.834658	0.024471	0.002012	0.007768	0.414280	-0.578860	-0.508282	-0.484709
04098						9.622599	0.176720	-1.831047	0.022140	0.001999	0.005884	0.415598	-0.578145	-0.509091	-0.483584
04099						9.647392	0.223973	-1.839441	0.019333	0.001887	-0.000289	0.415658	-0.578099	-0.509134	-0.483541
04100						9.630348	0.249730	-1.810994	0.013515	0.001037	0.005899	0.415720	-0.578081	-0.509145	-0.483498
04101						9.630374	0.249007	-1.810955	0.000714	0.000150	0.006434	0.415738	-0.578096	-0.509128	-0.483483
04102						9.612776	0.250418	-1.781247	-0.009711	0.001394	0.006619	0.415763	-0.578099	-0.509072	-0.483517
04103						9.646966	0.197320	-1.837760	-0.018072	0.001543	0.007661	0.415733	-0.578153	-0.509003	-0.483552
04104						9.628825	0.174378	-1.806680	-0.015746	0.001555	0.009545	0.415727	-0.578188	-0.508931	-0.483589
04105						9.633765	0.126028	-1.780383	-0.013681	0.000458	0.010402	0.415714	-0.578242	-0.508867	-0.483604
04106						9.621734	0.123288	-1.827600	-0.009977	0.000285	0.005592	0.415747	-0.578228	-0.508811	-0.483650
04107						9.621140	0.098515	-1.826521	0.001992	-0.004278	0.004207	0.415752	-0.578245	-0.508813	-0.483624
04108						9.650754	0.098252	-1.809238	0.002254	-0.003168	0.005235	0.415749	-0.578265	-0.508816	-0.483599
04109						9.673221	0.048071	-1.813010	0.010615	-0.003318	0.004193	0.415781	-0.578262	-0.508837	-0.483554
04110						9.697413	0.070835	-1.820436	0.009311	0.000047	0.007537	0.415873	-0.578218	-0.508821	-0.483544
04111						9.673798	0.070631	-1.814291	0.014276	0.003299	0.010099	0.415947	-0.578206	-0.508820	-0.483496
04112						9.703564	0.069413	-1.796229	0.015036	0.005567	0.014299	0.416032	-0.578202	-0.508804	-0.483444
04113						9.656934	0.093916	-1.785063	0.018951	0.004382	0.012751	0.416129	-0.578184	-0.508804	-0.483382
04114						9.627389	0.092023	-1.802090	0.017669	0.008807	0.014977	0.416255	-0.578150	-0.508777	-0.483343
04115						9.646909	0.161429	-1.834913	0.021297	0.005452	0.013520	0.416363	-0.578127	-0.508778	-0.483277
04116						9.653062	0.160801	-1.810730	0.019466	0.006600	0.014807	0.416481	-0.578100	-0.508762	-0.483223
04117						9.648975	0.231022	-1.837556	0.019750	0.008768	0.014718	0.416596	-0.578075	-0.508749	-0.483168
04118						9.654617	0.205896	-1.811701	0.016092	0.011065	0.017292	0.416721	-0.578037	-0.508713	-0.483143
04119						9.648245	0.178356	-1.832978	0.010057	0.011232	0.020217	0.416828	-0.578040	-0.508655	-0.483108
04120						9.607178	0.179214	-1.796379	0.007704	0.010161	0.019450	0.416937	-0.578026	-0.508593	-0.483096
04121						9.654068	0.151069	-1.806201	0.005064	0.006922	0.018773	0.417015	-0.578047	-0.508536	-0.483064
04122						9.612898	0.152223	-1.770071	0.004540	0.004703	0.016719	0.417060	-0.578063	-0.508499	-0.483045
04123						9.647051	0.097615	-1.826305	0.000307	0.002664	0.019474	0.417115	-0.578105	-0.508438	-0.483012
04124						9.653102	0.097166	-1.802523	-0.000684	0.000344	0.013130	0.417121	-0.578108	-0.508417	-0.483025
04125						9.641729	0.118036	-1.851079	0.001404	0.000303	0.012871	0.417157	-0.578137	-0.508382	-0.482996
04126						9.641748	0.116881	-1.851051	-0.000920	0.000293	0.010985	0.417177	-0.578163	-0.508349	-0.482984
04127						9.665390	0.114956	-1.857148	-0.001470	-0.002985	0.010049	0.417189	-0.578199	-0.508322	-0.482958
04128						9.642363	0.139308	-1.852576	0.003285	0.001271	0.009349	0.417251	-0.578170	-0.508300	-0.482962
04129						9.642387	0.138636	-1.852503	-0.005800	0.000223	0.005069	0.417247	-0.578195	-0.508270	-0.482966
04130						9.601117	0.141253	-1.816791	-0.007600	0.002432	0.005237	0.417243	-0.578204	-0.508240	-0.482992
04131						9.654471	0.139919	-1.804943	-0.009512	0.000405	0.009878	0.417241	-0.578248	-0.508187	-0.482997
04132						9.659202	0.091621	-1.778740	-0.014213	-0.001732	0.008342	0.417161	-0.578304	-0.508161	-0.483026
04133						9.664786	0.086802	-1.855883	-0.012414	-0.003942	0.008173	0.417135	-0.578361	-0.508115	-0.483029
04134						9.646453	0.063918	-1.825241	-0.012126	-0.001773	0.008083	0.417055	-0.578393	-0.508103	-0.483072
04135						9.651839	0.040126	-1.800217	-0.005252	0.003500	0.006006	0.417063	-0.578411	-0.508065	-0.483083
04136						9.675520	0.038462	-1.806058	0.000904	-0.000861	0.009699	0.417075	-0.578412	-0.508056	-0.483081
04137						9.674258	-0.011072	-1.803288	0.001278	0.004486	0.006256	0.417105	-0.578415	-0.508032	-0.483077
04138						9.668979	0.011321	-1.827797	0.014281	0.004338	0.008989	0.417183	-0.578397	-0.508028	-0.483035
04139						9.652082	0.036706	-1.798983	0.020604	0.006332	0.005976	0.417273	-0.578354	-0.508047	-0.482988
04140						9.670521	0.057935	-1.829194	0.029480	0.008385	0.006994	0.417387	-0.578261	-0.508094	-0.482952
04141						9.642042	0.086402	-1.746830	0.031592	0.009402	0.005617	0.417516	-0.578187	-0.508135	-0.482887
04142						9.653836	0.082051	-1.799340	0.029181	0.006215	0.007086	0.417641	-0.578115	-0.508170	-0.482827
04143						9.655254	0.129590	-1.801525	0.024710	0.004130	0.007696	0.417741	-0.578073	-0.508199	-0.482760
04144						9.661290	0.129727	-1.777764	0.011108	-0.001115	0.006261	0.417786	-0.578064	-0.508207	-0.482724
04145						9.648630	0.102161	-1.823752	0.001159	0.000256	0.010727	0.417816	-0.578089	-0.508178	-0.482699
04146						9.654703	0.102474	-1.799773	-0.004701	0.006785	0.006937	0.417822	-0.578083	-0.508141	-0.482740
04147						9.631805	0.127246	-1.794691	-0.011545	0.002575	0.007897	0.417814	-0.578121	-0.508085	-0.482760
04148						9.630515	0.077909	-1.791812	-0.013663	0.001559	0.009275	0.417787	-0.578174	-0.508021	-0.482787
04149						9.649531	0.123890	-1.824011	-0.011866	-0.000652	0.009108	0.417773	-0.578224	-0.507968	-0.482796
04150						9.642212	0.073405	-1.844900	-0.005282	0.002448	0.007122	0.417795	-0.578239	-0.507922	-0.482807
04151						9.636907	0.096087	-1.869795	0.002522	-0.001000	0.005151	0.417812	-0.578250	-0.507915	-0.482786
04152						9.624577	0.074510	-1.815228	0.000492	0.001160	0.003173	0.417790	-0.578256	-0.507917	-0.482796
04153						9.665905	0.070926	-1.850727	0.009048	-0.000019	0.005401	0.417829	-0.578252	-0.507923	-0.482761
04154						9.648924	0.097035	-1.822474	0.006265	-0.000128	-0.000776	0.417830	-0.578216	-0.507955	-0.482769
04155						9.677223	0.048320	-1.802134	-0.001857	0.000093	0.002404	0.417831	-0.578226	-0.507944	-0.482769
04156						9.671258	0.046948	-1.825605	-0.001307	0.003371	0.003340	0.417846	-0.578201	-0.507935	-0.482795
04157						9.649023	0.096488	-1.821979	-0.005715	0.003406	0.001712	0.417842	-0.578209	-0.507909	-0.482816
04158						9.641722	0.046516	-1.842681	-0.005745	0.002347	0.002830	0.417814	-0.578217	-0.507894	-0.482846
04159						9.623395	0.024016	-1.811693	-0.001887	-0.000965	0.003523	0.417814	-0.578232	-0.507882	-0.482841
04160						9.653730	0.048307	-1.795328	0.002349	0.001067	0.000768	0.417846	-0.578201	-0.507887	-0.482845
04161						9.677395	0.047482	-1.801233	-0.002551	-0.000058	-0.004032	0.417829	-0.578196	-0.507892	-0.482859
04162						9.648420	0.072040	-1.820250	-0.000231	-0.000051	-0.002146	0.417834	-0.578196	-0.507892	-0.482856
04163						9.664720	0.021292	-1.847198	0.004177	-0.000085	-0.000517	0.417845	-0.578187	-0.507903	-0.482846
04164						9.641742	0.046630	-1.842576	0.000000	0.000000	0.000000	0.417823	-0.578175	-0.507918	-0.482863
04165						9.671424	0.046591	-1.824737	0.007047	0.003200	0.002305	0.417857	-0.578159	-0.507922	-0.482849
04166						9.649206	0.096075	-1.821032	0.005017	0.005360	0.000327	0.417891	-0.578122	-0.507927	-0.482858
04167						9.653919	0.048356	-1.794316	-0.001538	0.003320	0.001194	0.417898	-0.578120	-0.507913	-0.482869
04168						9.653999	0.048046	-1.793890	0.003390	0.005505	0.004877	0.417901	-0.578117	-0.507908	-0.482875
04169						9.683739	0.047827	-1.775716	-0.003367	0.004473	0.002480	0.417909	-0.578120	-0.507883	-0.482892
04170						9.671823	0.045097	-1.822656	-0.007142	0.002543	0.009525	0.417922	-0.578162	-0.507827	-0.482889
04171						9.631231	0.071853	-1.788211	0.000981	0.002320	0.006346	0.417946	-0.578171	-0.507807	-0.482880
04172						9.672643	0.068126	-1.823314	0.001561	0.006656	0.006163	0.417957	-0.578191	-0.507778	-0.482876
04173						9.632097	0.095012	-1.788632	0.005188	0.003293	0.004711	0.417991	-0.578184	-0.507770	-0.482863
04174						9.632121	0.094574	-1.788528	0.002289	-0.001051	0.003006	0.418015	-0.578193	-0.507761	-0.482841
04175						9.649756	0.092132	-1.818319	-0.000090	-0.003176	0.003355	0.418014	-0.578209	-0.507758	-0.482825
04176						9.667448	0.089926	-1.847793	-0.003567	0.005481	-0.000785	0.418016	-0.578226	-0.507729	-0.482834
04177						9.668211	0.114268	-1.848746	-0.001568	0.002262	0.002313	0.418023	-0.578231	-0.507713	-0.482839
04178						9.626949	0.117105	-1.812876	-0.009403	0.004654	0.005400	0.417982	-0.578292	-0.507666	-0.482851
04179						9.643998	0.090254	-1.840790	-0.003427	0.002356	0.004717	0.417989	-0.578307	-0.507639	-0.482856
04180						9.602751	0.093199	-1.804824	-0.007485	0.006677	0.000760	0.417979	-0.578279	-0.507622	-0.482914
04181						9.643493	0.065659	-1.838487	-0.001279	0.004430	0.002222	0.417991	-0.578278	-0.507604	-0.482925
04182						9.656224	0.092102	-1.792154	0.002639	0.003234	0.000678	0.418038	-0.578237	-0.507604	-0.482933
04183						9.667254	0.064333	-1.843905	0.004407	-0.000036	0.001630	0.418055	-0.578232	-0.507610	-0.482918
04184						9.697641	0.088392	-1.827282	0.015921	0.005243	0.003330	0.418099	-0.578185	-0.507645	-0.482899
04185						9.649038	0.041005	-1.812193	0.012002	0.006439	0.004874	0.418161	-0.578157	-0.507647	-0.482877
04186						9.632847	0.091243	-1.784789	0.024012	0.003959	0.001272	0.418205	-0.578156	-0.507688	-0.482798
04187						9.608551	0.067393	-1.777202	0.019573	0.002936	0.000761	0.418270	-0.578111	-0.507727	-0.482754
04188						9.638240	0.067206	-1.759225	0.019342	0.002885	-0.001384	0.418306	-0.578080	-0.507774	-0.482709
04189						9.657342	0.113663	-1.791380	0.010440	-0.000218	-0.001288	0.418332	-0.578057	-0.507804	-0.482683
04190						9.651352	0.112427	-1.815098	0.004145	-0.001146	0.000604	0.418309	-0.578066	-0.507825	-0.482671
04191						9.657321	0.113400	-1.791506	-0.001859	0.000095	0.002403	0.418308	-0.578077	-0.507813	-0.482670
04192						9.652042	0.136290	-1.816527	-0.007923	-0.000780	0.006441	0.418294	-0.578122	-0.507775	-0.482670
04193						9.622426	0.135991	-1.834130	-0.020590	0.002605	0.002485	0.418245	-0.578167	-0.507713	-0.482723
04194						9.627696	0.112906	-1.809169	-0.027728	-0.003768	0.003534	0.418191	-0.578194	-0.507655	-0.482799
04195						9.620962	0.087632	-1.831760	-0.027701	-0.002709	0.002416	0.418108	-0.578265	-0.507587	-0.482856
04196						9.673490	0.062742	-1.819007	-0.026135	-0.004972	0.000104	0.417985	-0.578330	-0.507553	-0.482921
04197						9.649049	0.039790	-1.812161	-0.025879	-0.003863	0.001132	0.417901	-0.578398	-0.507496	-0.482972
04198						9.637028	0.037780	-1.859759	-0.023303	-0.002748	0.004048	0.417838	-0.578473	-0.507431	-0.483006
04199						9.688880	-0.011694	-1.845593	-0.013057	-0.001957	-0.000507	0.417793	-0.578505	-0.507405	-0.483034
04200						9.640871	-0.033742	-1.832345	-0.004088	0.003265	-0.002838	0.417783	-0.578480	-0.507408	-0.483069
04201						9.641621	-0.009112	-1.833399	0.006330	0.001988	-0.003010	0.417798	-0.578456	-0.507428	-0.483064
04202						9.671278	-0.008959	-1.815606	0.010447	-0.000217	-0.001290	0.417852	-0.578503	-0.507414	-0.482975
04203						9.643063	0.039760	-1.835810	0.014717	0.002873	-0.005161	0.417889	-0.578455	-0.507459	-0.482955
04204						9.643113	0.039980	-1.835541	0.016805	0.002829	-0.005419	0.417908	-0.578407	-0.507520	-0.482930
04205						9.656547	0.091108	-1.790467	0.015264	0.006150	-0.004224	0.417956	-0.578352	-0.507557	-0.482916
04206						9.657321	0.115549	-1.791370	0.017031	0.002879	-0.003272	0.417997	-0.578335	-0.507593	-0.482863
04207						9.658055	0.140111	-1.792482	0.008186	0.001893	-0.005414	0.418012	-0.578302	-0.507624	-0.482857
04208						9.634469	0.141437	-1.786116	0.009025	0.007339	-0.004569	0.418027	-0.578248	-0.507658	-0.482872
04209						9.634551	0.141578	-1.785665	0.000290	0.002168	-0.000091	0.418032	-0.578245	-0.507654	-0.482876
04210						9.645841	0.119679	-1.736832	-0.004346	0.002153	-0.003867	0.417963	-0.578305	-0.507648	-0.482870
04211						9.662834	0.093552	-1.765064	-0.010963	-0.002002	-0.000766	0.417923	-0.578334	-0.507628	-0.482891
04212						9.679824	0.067207	-1.793326	-0.018540	0.001499	0.003347	0.417896	-0.578420	-0.507542	-0.482902
04213						9.673197	0.041698	-1.815435	-0.022461	0.002694	0.004890	0.417849	-0.578477	-0.507468	-0.482953
04214						9.679230	0.042679	-1.791468	-0.020114	0.003760	0.005660	0.417828	-0.578542	-0.507378	-0.482988
04215						9.678584	0.017903	-1.789888	-0.017858	0.001648	0.009785	0.417803	-0.578604	-0.507302	-0.483014
04216						9.649698	0.041510	-1.808659	-0.005032	0.003556	0.008148	0.417813	-0.578632	-0.507258	-0.483019
04217						9.643080	0.015712	-1.830718	-0.003889	0.002255	0.000425	0.417808	-0.578639	-0.507242	-0.483031
04218						9.621546	0.089629	-1.828590	-0.001632	0.000143	0.004549	0.417811	-0.578654	-0.507225	-0.483028
04219						9.621570	0.089315	-1.828479	0.002609	0.002174	0.001798	0.417828	-0.578652	-0.507221	-0.483021
04220						9.639503	0.092501	-1.757427	-0.004179	0.000087	0.000515	0.417819	-0.578606	-0.507234	-0.483070
04221						9.652586	0.138032	-1.813499	-0.008970	-0.005221	0.002329	0.417784	-0.578647	-0.507216	-0.483070
04222						9.674800	0.088196	-1.817048	-0.012310	0.000310	0.003692	0.417808	-0.578621	-0.507176	-0.483122
04223						9.656432	0.065782	-1.786028	-0.012021	0.002478	0.003603	0.417788	-0.578652	-0.507131	-0.483149
04224						9.643302	0.019822	-1.730217	-0.016356	-0.002732	0.009707	0.417776	-0.578674	-0.507079	-0.483188
04225						9.642711	0.000469	-1.629044	-0.013994	-0.010579	0.001995	0.417713	-0.578736	-0.507061	-0.483187
04226						9.659162	-0.039628	-1.456874	-0.006099	-0.028190	-0.000725	0.417641	-0.578802	-0.507101	-0.483128
04227						9.623710	-0.010611	-1.404457	0.008397	-0.085236	-0.009821	0.417425	-0.578968	-0.507327	-0.482878
04228						9.708754	-0.055011	-1.763073	0.056810	-0.139708	-0.022117	0.417167	-0.579118	-0.507821	-0.482402
04229						9.860802	-0.019050	-1.967634	0.121606	-0.111061	-0.048348	0.417121	-0.579011	-0.508485	-0.481871
04230						9.818589	-0.026662	-1.737448	0.198388	-0.048663	-0.065037	0.417432	-0.578604	-0.509210	-0.481325
04231						9.724513	0.046868	-1.822840	0.222237	-0.049954	-0.056034	0.417812	-0.578120	-0.510010	-0.480728
04232						9.762633	0.026514	-2.164860	0.175516	-0.048657	-0.037114	0.418095	-0.577783	-0.510631	-0.480228
04233						9.567640	0.038924	-2.042229	0.159283	-0.003545	-0.028738	0.418476	-0.577388	-0.511103	-0.479869
04234						9.416225	0.102488	-1.856224	0.157043	-0.014002	-0.015086	0.418867	-0.577102	-0.511521	-0.479426
04235						9.406035	0.177710	-1.811108	0.118367	-0.055512	-0.005668	0.419052	-0.576976	-0.511937	-0.478972
04236						9.526051	0.311429	-1.956989	0.056066	-0.058967	-0.010723	0.419053	-0.577012	-0.512195	-0.478652
04237						9.554596	0.330144	-2.046040	0.018876	-0.033489	-0.016588	0.418982	-0.577014	-0.512357	-0.478538
04238						9.629930	0.280846	-2.039302	0.010948	-0.003797	-0.011069	0.418944	-0.576959	-0.512444	-0.478546
04239						9.700823	0.277939	-2.057423	0.003666	0.006652	0.005855	0.418985	-0.576954	-0.512421	-0.478540
04240						9.707021	0.295728	-2.134500	-0.011341	0.021612	0.023619	0.419089	-0.577021	-0.512254	-0.478546
04241						9.617898	0.267138	-2.182485	-0.021204	0.038842	0.047187	0.419241	-0.577097	-0.511985	-0.478610
04242						9.529876	0.243652	-2.129095	-0.038208	0.041780	0.062313	0.419329	-0.577203	-0.511677	-0.478734
04243						9.521837	0.279613	-1.871873	-0.046671	0.054017	0.066272	0.419491	-0.577345	-0.511260	-0.478867
04244						9.535222	0.241434	-1.615760	-0.071479	0.044598	0.064258	0.419549	-0.577554	-0.510821	-0.479033
04245						9.564886	0.213171	-1.593471	-0.097736	0.017493	0.052071	0.419435	-0.577854	-0.510398	-0.479220
04246						9.663551	0.152360	-1.690809	-0.083990	-0.009298	0.038077	0.419239	-0.578177	-0.510111	-0.479308
04247						9.708490	0.057184	-1.597625	-0.015585	-0.018779	0.017752	0.419188	-0.578304	-0.510061	-0.479253
04248						9.730951	0.066564	-1.808575	0.028214	-0.031809	0.009336	0.419243	-0.578324	-0.510161	-0.479074
04249						9.835530	0.051385	-1.989668	0.027009	-0.033157	-0.000266	0.419236	-0.578350	-0.510295	-0.478906
04250						9.655889	0.164496	-1.825225	0.041239	-0.005207	-0.002892	0.419360	-0.578289	-0.510393	-0.478767
04251						9.492256	0.262006	-1.891140	0.047730	-0.027832	0.008929	0.419449	-0.578282	-0.510539	-0.478542
04252						9.563255	0.263666	-1.812720	0.019047	-0.051239	0.008914	0.419381	-0.578354	-0.510688	-0.478355
04253						9.582319	0.297633	-1.648190	-0.009552	-0.056261	0.005081	0.419223	-0.578525	-0.510767	-0.478203
04254						9.490374	0.247865	-1.704663	-0.025021	-0.092886	0.008150	0.418893	-0.578826	-0.510897	-0.477990
04255						9.669788	0.128294	-1.579079	0.001307	-0.129342	0.006964	0.418583	-0.579154	-0.511149	-0.477594
04256						9.722795	-0.101999	-1.339206	0.038207	-0.106716	-0.013691	0.418373	-0.579289	-0.511509	-0.477228
04257						9.608465	-0.287577	-0.879805	0.039812	-0.118955	-0.021148	0.418134	-0.579440	-0.511912	-0.476822
04258						9.431404	-0.340635	-1.072753	-0.027085	-0.196303	-0.027547	0.417437	-0.579890	-0.512347	-0.476418
04259						9.344041	0.051004	-1.956181	-0.096049	-0.299825	-0.035000	0.416307	-0.580718	-0.512844	-0.475864
04260						9.362107	0.766724	-2.763986	-0.081866	-0.283962	-0.076542	0.415102	-0.581394	-0.513455	-0.475432
04261						9.294396	1.412707	-2.829765	-0.037954	-0.193520	-0.121011	0.414206	-0.581626	-0.514117	-0.475214
04262						9.193470	1.840260	-2.512692	-0.034447	-0.155950	-0.136744	0.413318	-0.581767	-0.514756	-0.475123
04263						9.184211	1.907792	-2.452044	-0.140502	-0.169009	-0.119826	0.412188	-0.582155	-0.515119	-0.475236
04264						9.182200	1.827042	-2.434597	-0.320205	-0.184049	-0.093825	0.410462	-0.583050	-0.515041	-0.475717
04265						9.294518	1.513975	-2.612805	-0.482230	-0.168811	-0.057844	0.408482	-0.584296	-0.514406	-0.476579
04266						9.260507	1.098296	-2.489027	-0.610956	-0.120212	-0.008576	0.406301	-0.585723	-0.513299	-0.477883
04267						9.329425	0.734194	-2.193986	-0.684667	-0.109068	0.019953	0.404059	-0.587428	-0.511823	-0.479273
04268						9.522726	0.330923	-2.090311	-0.686099	-0.117775	0.037780	0.401725	-0.589099	-0.510412	-0.480685
04269						9.780540	-0.202945	-2.108789	-0.589184	-0.090955	0.041285	0.399853	-0.590609	-0.509054	-0.481832
04270						9.889513	-0.660256	-2.038144	-0.459736	-0.047122	0.035685	0.398306	-0.591642	-0.508064	-0.482890
04271						9.915694	-0.946158	-1.921101	-0.296785	-0.032070	0.014810	0.397379	-0.592352	-0.507367	-0.483516
04272						9.879296	-1.038137	-1.864828	-0.156407	-0.044919	-0.002671	0.396756	-0.592685	-0.507154	-0.483844
04273						9.914651	-0.894777	-2.111247	-0.012841	-0.052181	-0.004342	0.396572	-0.592829	-0.507240	-0.483727
04274						9.933297	-0.627177	-2.072988	0.157187	-0.034644	0.002015	0.396916	-0.592553	-0.507731	-0.483267
04275						9.840769	-0.408566	-1.974396	0.253382	-0.012853	0.019834	0.397679	-0.592135	-0.508310	-0.482543
04276						9.758469	-0.174518	-2.106883	0.291339	-0.002180	0.053601	0.398597	-0.591666	-0.508904	-0.481735
04277						9.747901	0.225285	-2.187088	0.334551	0.013910	0.089823	0.399835	-0.591197	-0.509417	-0.480742
04278						9.677570	0.577790	-2.121826	0.340815	0.047895	0.120132	0.401235	-0.590682	-0.509805	-0.479797
04279						9.574061	0.758170	-2.067611	0.281112	0.061061	0.146915	0.402569	-0.590348	-0.509923	-0.478963
04280						9.543315	0.866243	-1.929927	0.204680	0.072226	0.160789	0.403654	-0.590150	-0.509842	-0.478380
04281						9.495244	0.821390	-2.009577	0.135373	0.096256	0.162515	0.404684	-0.590064	-0.509493	-0.477988
04282						9.437254	0.648317	-2.282819	0.080926	0.121132	0.161008	0.405557	-0.589983	-0.509010	-0.477862
04283						9.454394	0.501103	-2.473625	0.073332	0.147291	0.155088	0.406515	-0.589880	-0.508430	-0.477793
04284						9.544990	0.361304	-2.404648	0.107237	0.147662	0.153653	0.407529	-0.589686	-0.507962	-0.477667
04285						9.590949	0.194490	-2.397707	0.146255	0.156864	0.166638	0.408752	-0.589439	-0.507501	-0.477416
04286						9.589732	-0.041175	-2.272345	0.185865	0.172505	0.177270	0.410094	-0.589009	-0.507155	-0.477163
04287						9.594029	-0.277730	-2.121800	0.285943	0.172413	0.178900	0.411795	-0.588467	-0.506958	-0.476577
04288						9.571037	-0.113235	-1.774238	0.380960	0.178577	0.168110	0.413599	-0.587659	-0.507091	-0.475870
04289						9.551692	-0.153738	-1.648413	0.461088	0.179323	0.149724	0.415758	-0.586659	-0.507377	-0.474915
04290						9.484798	-0.249209	-1.684523	0.559170	0.171944	0.136849	0.418033	-0.585418	-0.508008	-0.473774
04291						9.520168	-0.240434	-1.551426	0.629743	0.152674	0.107370	0.420510	-0.584012	-0.508867	-0.472394
04292						9.607156	-0.195730	-1.612882	0.662636	0.143367	0.091397	0.422918	-0.582512	-0.509901	-0.470978
04293						9.742784	-0.175658	-1.965431	0.675446	0.137997	0.081252	0.425419	-0.580965	-0.510963	-0.469483
04294						9.776185	0.019665	-2.278008	0.646837	0.137784	0.090499	0.427719	-0.579557	-0.511939	-0.468069
04295						9.715371	0.177304	-2.464715	0.570258	0.123609	0.120642	0.429961	-0.578358	-0.512660	-0.466707
04296						9.588282	0.364919	-2.336123	0.494125	0.103474	0.159674	0.431930	-0.577372	-0.513231	-0.465480
04297						9.436334	0.572735	-2.511693	0.407621	0.061467	0.208640	0.433741	-0.576885	-0.513447	-0.464160
04298						9.334071	0.703485	-2.673483	0.335439	0.028054	0.236899	0.435300	-0.576573	-0.513586	-0.462933
04299						9.357699	0.713305	-2.505060	0.263375	0.022961	0.261634	0.436715	-0.576620	-0.513394	-0.461753
04300						9.332471	0.732460	-2.729998	0.250856	0.027691	0.283730	0.438035	-0.576735	-0.513165	-0.460612
04301						9.369048	0.678477	-2.887579	0.282774	0.045367	0.292963	0.439632	-0.576764	-0.512876	-0.459375
04302						9.438274	0.644583	-2.825814	0.302028	0.064382	0.298281	0.441197	-0.576663	-0.512698	-0.458198
04303						9.500033	0.582910	-2.782853	0.319538	0.083677	0.308153	0.443029	-0.576557	-0.512360	-0.456941
04304						9.462486	0.292127	-2.637527	0.341114	0.112933	0.324588	0.444842	-0.576320	-0.512115	-0.455751
04305						9.457684	0.060917	-2.579994	0.314067	0.120665	0.346155	0.446833	-0.576233	-0.511569	-0.454525
04306						9.474764	-0.033413	-2.590814	0.276629	0.144786	0.358253	0.448661	-0.576179	-0.510966	-0.453469
04307						9.461213	-0.000372	-2.579333	0.272893	0.169006	0.380264	0.450729	-0.576155	-0.510115	-0.452407
04308						9.448926	0.100839	-2.599447	0.289231	0.182862	0.391655	0.452695	-0.576074	-0.509383	-0.451370
04309						9.400593	0.187703	-2.558012	0.292767	0.182120	0.403335	0.454899	-0.576027	-0.508475	-0.450237
04310						9.386110	0.367996	-2.535825	0.258543	0.191788	0.408094	0.456885	-0.576002	-0.507603	-0.449240
04311						9.373395	0.548786	-2.514120	0.225161	0.192932	0.415428	0.458942	-0.576108	-0.506477	-0.448277
04312						9.302552	0.616828	-2.464513	0.188766	0.203525	0.412675	0.460709	-0.576202	-0.505452	-0.447500
04313						9.252770	0.704298	-2.447265	0.169676	0.205735	0.413803	0.462629	-0.576396	-0.504172	-0.446713
04314						9.107640	0.722446	-2.473441	0.147622	0.223099	0.426288	0.464294	-0.576525	-0.503042	-0.446093
04315						9.027482	0.802524	-2.370318	0.122617	0.226850	0.426889	0.466154	-0.576807	-0.501566	-0.445451
04316						8.977666	0.959416	-2.411207	0.075274	0.197914	0.420205	0.467499	-0.577221	-0.500286	-0.444944
04317						8.902377	1.038140	-2.514505	0.023435	0.176391	0.420059	0.468925	-0.577824	-0.498722	-0.444417
04318						8.931998	1.078049	-2.462650	-0.026524	0.165697	0.418944	0.469942	-0.578439	-0.497363	-0.444063
04319						8.985694	1.003153	-2.327947	-0.065719	0.157687	0.419660	0.471058	-0.579286	-0.495642	-0.443702
04320						9.165288	0.830579	-1.884635	-0.083676	0.154473	0.417624	0.471811	-0.580095	-0.494180	-0.443477
04321						9.388547	0.587893	-1.521508	-0.130006	0.129107	0.425657	0.472677	-0.581165	-0.492363	-0.443174
04322						9.533521	0.122960	-1.902426	-0.177852	0.083772	0.442716	0.472965	-0.582404	-0.490816	-0.442954
04323						9.749266	-0.332800	-2.304259	-0.145549	0.105970	0.459649	0.473798	-0.583640	-0.488916	-0.442540
04324						10.033087	-0.658198	-2.379874	-0.063483	0.164520	0.464472	0.474718	-0.584453	-0.487362	-0.442196
04325						10.233615	-0.826070	-2.269987	0.059100	0.206877	0.481133	0.476435	-0.585025	-0.485608	-0.441522
04326						10.302997	-0.790792	-2.247057	0.177261	0.215687	0.501519	0.478216	-0.585223	-0.484388	-0.440671
04327						10.363400	-0.779532	-2.369885	0.235535	0.214560	0.522664	0.480551	-0.585449	-0.482878	-0.439486
04328						10.514182	-0.522625	-2.563192	0.288532	0.220930	0.517796	0.482726	-0.585386	-0.481848	-0.438317
04329						10.851013	0.022949	-2.927892	0.382644	0.249989	0.489686	0.485494	-0.585090	-0.480664	-0.436953
04330						10.998687	0.525629	-2.964709	0.416982	0.310214	0.464953	0.488172	-0.584405	-0.479808	-0.435825
04331						10.837332	1.156518	-3.068610	0.414642	0.361340	0.444625	0.491191	-0.583667	-0.478545	-0.434810
04332						10.529820	1.690344	-3.054591	0.328236	0.369669	0.433528	0.493751	-0.582942	-0.477456	-0.434079
04333						10.292629	2.133464	-3.249940	0.195253	0.337378	0.437353	0.496047	-0.582767	-0.475789	-0.433527
04334						10.342692	2.496025	-3.601802	0.071602	0.278345	0.444040	0.497654	-0.582963	-0.474250	-0.433107
04335						10.512413	2.565737	-3.898200	-0.009267	0.218508	0.458438	0.499110	-0.583595	-0.472368	-0.432637
04336						10.714187	2.368400	-4.073750	-0.026420	0.181045	0.474855	0.500258	-0.584334	-0.470750	-0.432077
04337						10.912787	2.169107	-4.403183	0.017038	0.148607	0.478491	0.501663	-0.585092	-0.469035	-0.431286
04338						11.139690	2.067067	-5.005539	0.123072	0.119058	0.461719	0.503086	-0.585515	-0.467988	-0.430191
04339						11.977796	2.682059	-5.423565	0.261292	0.040521	0.399293	0.504777	-0.585701	-0.467297	-0.428706
04340						12.291748	3.225303	-5.660681	0.262445	-0.002094	0.309182	0.505962	-0.585679	-0.467323	-0.427308
04341						11.034483	3.158665	-4.794127	0.155792	0.080380	0.197498	0.507001	-0.585572	-0.466893	-0.426692
04342						10.120888	3.203025	-3.976693	0.028347	0.089876	0.021601	0.507078	-0.585264	-0.467070	-0.426830
04343						9.911317	3.754085	-4.110065	-0.184509	0.089983	-0.226683	0.506237	-0.585007	-0.467131	-0.428112
04344						9.761384	4.686408	-4.357629	-0.531584	0.133372	-0.523295	0.503554	-0.584766	-0.467589	-0.431095
04345						9.292991	5.884296	-4.264441	-0.859222	0.172502	-0.822006	0.499637	-0.584623	-0.467718	-0.435682
04346						8.024155	6.813070	-4.585422	-0.953362	0.126575	-1.091438	0.494428	-0.584046	-0.468970	-0.441020
04347						6.132232	6.771963	-4.440400	-0.926011	0.039936	-1.338736	0.488822	-0.583087	-0.470742	-0.446615
04348						4.795594	6.328468	-2.735358	-1.001509	-0.046547	-1.662539	0.481654	-0.581599	-0.473913	-0.452944
04349						4.759331	5.932038	-0.915325	-1.447742	-0.107909	-2.000685	0.472593	-0.580542	-0.476695	-0.460856
04350						6.472407	5.499396	-0.141354	-2.214424	-0.283816	-2.228494	0.459833	-0.580951	-0.479121	-0.470630
04351						9.551248	4.270154	-0.195556	-3.026327	-0.489451	-2.305243	0.444333	-0.583428	-0.479752	-0.481682
04352						12.635554	3.568138	-1.923715	-3.202095	-0.794582	-2.407222	0.426650	-0.586496	-0.481097	-0.492482
04353						15.865735	1.896616	-3.544955	-2.981810	-0.956924	-2.394395	0.409597	-0.589336	-0.482743	-0.501870
04354						18.180805	-1.595445	-4.121552	-2.616515	-0.896538	-2.172339	0.393604	-0.591568	-0.484652	-0.510133
04355						17.559205	-5.188134	-3.936382	-2.203931	-0.608954	-2.014390	0.380396	-0.592505	-0.486150	-0.517586
04356						14.950171	-7.737604	-4.386981	-1.850108	-0.312683	-2.017124	0.368389	-0.591777	-0.488228	-0.525094
04357						11.621857	-7.347231	-4.270979	-1.513135	-0.303263	-2.163170	0.357429	-0.590024	-0.491189	-0.531836
04358						9.804168	-3.966617	-3.748933	-1.058543	-0.421079	-2.393055	0.346538	-0.586929	-0.496548	-0.537463
04359						9.460338	-0.198483	-3.587908	-0.434133	-0.641072	-2.617147	0.336576	-0.582847	-0.504144	-0.541151
04360						10.325619	2.205530	-3.306436	0.204992	-0.749944	-2.760441	0.327479	-0.577328	-0.514353	-0.543039
04361						10.861058	3.181535	-2.622237	0.569094	-0.671948	-2.831982	0.319637	-0.570869	-0.525134	-0.544220
04362						10.815520	3.140720	-2.009638	0.523862	-0.599109	-2.797225	0.311585	-0.564094	-0.535809	-0.545547
04363						10.620150	2.613560	-1.486150	0.325374	-0.572224	-2.700582	0.303542	-0.557853	-0.545169	-0.547223
04364						10.494186	1.774231	-1.174597	0.120627	-0.618070	-2.564400	0.294857	-0.552126	-0.553909	-0.549000
04365						10.229815	0.814484	-0.981471	-0.118868	-0.640755	-2.398361	0.286116	-0.547369	-0.561121	-0.551061
04366						9.869996	-0.137019	-0.737081	-0.333025	-0.614146	-2.205947	0.277126	-0.543098	-0.567433	-0.553412
04367						9.347109	-0.871493	-0.521521	-0.499981	-0.592055	-1.983379	0.268553	-0.539765	-0.572239	-0.555946
04368						8.721846	-1.411887	-0.258686	-0.639724	-0.601979	-1.757217	0.259966	-0.537047	-0.576291	-0.558468
04369						7.974627	-1.724360	0.158366	-0.757179	-0.629759	-1.568503	0.251695	-0.535240	-0.579198	-0.560979
04370						7.287056	-1.730262	0.749790	-0.861036	-0.647631	-1.417461	0.243327	-0.533823	-0.581644	-0.563485
04371						6.790423	-1.676938	0.869734	-0.893784	-0.693440	-1.277746	0.235283	-0.533121	-0.583374	-0.565772
04372						6.441650	-1.570744	0.476607	-0.786490	-0.724115	-1.154169	0.227610	-0.532551	-0.585283	-0.567473
04373						6.167971	-1.528212	-0.204049	-0.446789	-0.816318	-1.034933	0.221057	-0.532326	-0.587701	-0.567776
04374						6.204908	-1.231507	-0.839972	0.034753	-1.016544	-0.857221	0.215568	-0.532485	-0.591395	-0.565900
04375						6.724260	-0.674893	-0.958819	0.467057	-1.052892	-0.647541	0.211828	-0.533026	-0.595577	-0.562406
04376						7.153295	0.152533	-0.117222	0.676825	-0.672414	-0.459706	0.210204	-0.532675	-0.599594	-0.559070
04377						7.090691	1.279728	1.025750	0.698792	-0.169183	-0.301641	0.210680	-0.531497	-0.602538	-0.556841
04378						6.783212	2.630857	0.903547	0.891915	0.014011	-0.222620	0.212335	-0.529726	-0.605733	-0.554429
04379						7.097386	3.951214	-0.373452	1.330195	-0.009700	-0.148595	0.215379	-0.527870	-0.609826	-0.550524
04380						7.963122	5.207512	-2.579446	1.586770	0.064768	0.019206	0.219672	-0.525920	-0.614172	-0.545843
04381						7.980653	7.149304	-5.158915	1.642435	0.211975	0.098562	0.224871	-0.523813	-0.618157	-0.541235
04382						8.725490	8.987079	-8.152141	1.499166	0.268863	0.156916	0.229909	-0.521755	-0.621613	-0.537132
04383						9.317138	9.299044	-10.046800	0.989139	0.250170	0.212188	0.233801	-0.520589	-0.623435	-0.534465
04384						9.173326	7.339283	-10.273528	0.343188	0.252762	0.133366	0.235701	-0.519784	-0.623889	-0.533884
04385						8.430378	6.392812	-8.801533	-0.025682	-0.048245	-0.107801	0.235163	-0.519597	-0.624173	-0.533971
04386						8.274819	6.541765	-7.336138	-0.013655	-0.533444	-0.237963	0.232686	-0.520138	-0.625598	-0.532861
04387						7.888277	6.582914	-5.582014	0.219532	-0.936208	-0.182852	0.229806	-0.521789	-0.627756	-0.529951
04388						7.732248	6.183939	-3.085433	0.359988	-1.064739	-0.003497	0.227247	-0.524011	-0.630171	-0.525980
04389						9.668176	5.346953	0.689968	-0.154532	-0.942632	0.410500	0.224916	-0.527942	-0.629768	-0.523529
04390						16.254162	5.342934	2.077723	-1.239863	-0.974927	0.986883	0.221007	-0.534801	-0.625216	-0.523688
04391						22.201890	7.320559	-3.179193	-1.256679	-0.514283	1.552578	0.220061	-0.542351	-0.618325	-0.524502
04392						14.569045	7.799791	-3.290858	-1.140331	0.542727	1.559245	0.222597	-0.546827	-0.610656	-0.527760
04393						7.898004	6.514097	-0.917113	-1.835772	0.498861	1.207599	0.222241	-0.551196	-0.601933	-0.533356
04394						6.011321	3.399781	1.094655	-2.713341	0.233085	0.758449	0.217330	-0.555675	-0.592448	-0.541294
04395						7.349793	0.822852	1.823930	-2.565968	-0.108445	0.419835	0.210965	-0.559944	-0.584421	-0.548095
04396						10.249767	-0.804364	-3.357745	-1.828097	-0.354017	0.330686	0.205568	-0.563661	-0.578953	-0.552125
04397						12.779352	-1.101560	-4.366361	-1.150087	-0.337622	0.537590	0.202796	-0.567311	-0.574615	-0.553941
04398						12.811260	-3.933896	-1.811512	-0.651163	0.027605	0.947881	0.203528	-0.570514	-0.570181	-0.554964
04399						11.387767	-6.991232	-1.998763	-0.434628	0.217833	1.360361	0.206646	-0.574207	-0.564875	-0.555428
04400						10.844394	-8.234234	-1.275704	-0.258974	0.374767	1.655532	0.211462	-0.578033	-0.559045	-0.555545
04401						11.067864	-8.356165	-1.504087	-0.067796	0.462852	1.946893	0.217925	-0.582224	-0.552731	-0.554989
04402						11.115806	-7.442469	-2.735473	0.489231	0.506789	2.033316	0.226324	-0.585863	-0.547579	-0.552900
04403						11.418644	-5.974354	-3.182929	1.173708	0.541676	1.950872	0.236590	-0.588331	-0.544477	-0.549032
04404						10.867013	-4.428131	-3.596523	1.716039	0.589870	1.753350	0.248007	-0.589443	-0.543238	-0.544005
04405						10.444365	-2.145255	-4.308624	1.970320	0.546346	1.637756	0.259699	-0.589905	-0.543065	-0.538190
04406						10.206772	0.156860	-4.624984	1.892988	0.513764	1.645727	0.271075	-0.590537	-0.542527	-0.532400
04407						10.166217	1.646787	-5.047912	1.773591	0.501414	1.737004	0.282242	-0.591456	-0.541415	-0.526677
04408						10.207415	2.770050	-5.116672	1.746896	0.528807	1.859842	0.293710	-0.592637	-0.539661	-0.520847
04409						9.712200	3.169343	-4.352458	1.772739	0.584583	1.953537	0.305569	-0.593722	-0.537601	-0.514885
04410						9.002320	3.312429	-3.464396	1.698598	0.624403	1.972883	0.317335	-0.594819	-0.535064	-0.509112
04411						8.242133	3.432503	-2.753286	1.440301	0.679205	1.905890	0.328232	-0.595852	-0.531964	-0.504221
04412						7.526798	3.798437	-2.185807	1.125052	0.671182	1.800198	0.337878	-0.597104	-0.528264	-0.500242
04413						7.016915	4.277236	-1.797209	0.804286	0.603498	1.733976	0.346163	-0.598780	-0.524073	-0.496972
04414						6.719412	4.568289	-1.359829	0.504252	0.578160	1.701854	0.353381	-0.600936	-0.519177	-0.494422
04415						6.758802	4.266344	-0.993190	0.234067	0.674150	1.704763	0.360004	-0.603250	-0.513441	-0.492814
04416						6.898852	3.381337	-0.693133	-0.018108	0.797517	1.701333	0.366140	-0.605681	-0.506783	-0.492202
04417						7.557694	2.358411	-0.732412	-0.204363	0.782964	1.654003	0.371530	-0.608289	-0.499838	-0.492049
04418						8.473336	1.295644	-1.336274	-0.335218	0.687999	1.653988	0.376248	-0.611340	-0.492665	-0.491916
04419						9.019716	0.285024	-1.914052	-0.406863	0.603888	1.663739	0.380539	-0.614689	-0.485444	-0.491621
04420						8.925647	-0.208499	-1.955681	-0.443590	0.616215	1.627353	0.384611	-0.617962	-0.478133	-0.491514
04421						8.487726	-0.472180	-1.716617	-0.437328	0.616372	1.546565	0.388490	-0.620959	-0.471099	-0.491479
04422						8.123227	-0.501503	-2.025261	-0.341712	0.449097	1.473127	0.392056	-0.623984	-0.464776	-0.490836
04423						8.006712	-0.449099	-2.410191	-0.112655	0.204193	1.401943	0.395580	-0.626942	-0.459736	-0.488982
04424						8.493344	-0.073808	-2.731785	0.343256	-0.002440	1.298462	0.399775	-0.629257	-0.456475	-0.485640
04425						9.201620	0.567491	-3.578828	1.006094	-0.139515	1.176943	0.405438	-0.630249	-0.455503	-0.480545
04426						9.495287	1.502621	-4.821548	1.731373	-0.167281	1.020516	0.412900	-0.629450	-0.456749	-0.474011
04427						9.549881	2.540802	-5.730267	2.304542	-0.146920	0.834769	0.421736	-0.626896	-0.459876	-0.466534
04428						9.715919	3.290063	-6.050620	2.623447	-0.080148	0.670192	0.431256	-0.623039	-0.464045	-0.458806
04429						9.821840	3.718584	-5.640770	2.627066	0.063889	0.536059	0.440751	-0.618412	-0.468245	-0.451722
04430						10.190563	4.048013	-5.432882	2.335120	0.140279	0.444231	0.449217	-0.613940	-0.471863	-0.445676
04431						10.498093	4.499756	-5.256546	1.897165	0.229143	0.384379	0.456388	-0.610041	-0.474397	-0.441029
04432						10.345479	5.027435	-4.906544	1.542148	0.332601	0.333289	0.462532	-0.606545	-0.476100	-0.437603
04433						10.101984	5.419599	-4.444001	1.267611	0.395712	0.298210	0.467932	-0.603439	-0.477067	-0.435096
04434						9.321491	5.650077	-4.515917	0.968278	0.353323	0.191396	0.472022	-0.600825	-0.477889	-0.433390
04435						8.783907	5.557891	-5.124631	0.545901	0.221790	0.010063	0.474184	-0.599073	-0.478539	-0.432737
04436						8.275981	5.591394	-6.094719	0.184267	0.100300	-0.260242	0.474300	-0.597766	-0.479628	-0.433212
04437						8.004332	6.130521	-7.613924	0.087777	-0.002273	-0.577837	0.473276	-0.596170	-0.481572	-0.434373
04438						8.368984	8.076127	-8.584850	0.213983	-0.094270	-0.875738	0.471652	-0.593708	-0.485061	-0.435628
04439						9.762872	10.378583	-8.918873	0.393166	-0.182175	-1.185787	0.469757	-0.590285	-0.489880	-0.436932
04440						7.438310	8.781080	-5.302655	0.107752	0.080929	-1.683641	0.466395	-0.585673	-0.495104	-0.440835
04441						5.242859	7.956622	0.042526	-0.304340	0.116508	-2.231119	0.460817	-0.580560	-0.500686	-0.447114
04442						5.438316	8.591213	2.349058	-0.920060	0.122787	-2.675872	0.452193	-0.575621	-0.506282	-0.455917
04443						6.311158	6.886141	1.576741	-1.970687	-0.126672	-2.848026	0.439612	-0.573064	-0.510219	-0.466922
04444						12.166878	4.980101	-0.132555	-2.982891	-0.441018	-3.061133	0.422383	-0.572718	-0.513033	-0.479984
04445						17.927859	4.862939	-1.633728	-2.872809	-0.804059	-3.446703	0.403684	-0.571719	-0.517594	-0.492213
04446						27.107385	0.705561	-4.783661	-2.138911	-1.264786	-3.046168	0.386362	-0.571185	-0.523599	-0.500316
04447						28.203275	-9.060096	-7.141817	-1.367210	-0.779447	-2.332688	0.374512	-0.569606	-0.528316	-0.506134
04448						20.855989	-14.302160	-6.196497	-0.570064	0.315080	-2.158925	0.367961	-0.564108	-0.532549	-0.512619
04449						12.357849	-12.321378	-2.885163	-0.319265	0.259334	-2.145637	0.362198	-0.558278	-0.537295	-0.518124
04450						8.499454	-5.549357	-3.042375	-0.490231	-0.028574	-2.354583	0.354451	-0.552820	-0.542775	-0.523593
04451						9.699700	2.003975	-4.370152	-0.167879	-0.614995	-2.784985	0.344959	-0.547107	-0.551087	-0.527238
04452						11.541522	5.203609	-3.093844	0.742495	-0.775533	-3.067026	0.336543	-0.539311	-0.562847	-0.528285
04453						10.663983	5.484164	-0.614047	1.266865	-0.580861	-3.102999	0.330047	-0.529896	-0.575476	-0.528305
04454						9.922497	4.228656	0.786238	1.062906	-0.605627	-3.028759	0.322882	-0.520923	-0.587367	-0.528570
04455						9.931375	3.155473	0.663138	0.497855	-0.789241	-2.912342	0.314094	-0.513583	-0.597492	-0.529699
04456						10.273852	1.719498	0.261176	-0.067327	-0.882949	-2.664746	0.304004	-0.507977	-0.605603	-0.531777
04457						9.753766	0.496827	-0.097422	-0.544867	-0.842354	-2.415498	0.293588	-0.503678	-0.611536	-0.534919
04458						8.717067	-0.479779	0.171017	-0.926978	-0.793157	-2.175034	0.282799	-0.500442	-0.615743	-0.538927
04459						8.268728	-1.405189	0.391054	-1.282916	-0.785605	-1.887067	0.272031	-0.498518	-0.618092	-0.543546
04460						7.943500	-2.503160	0.474776	-1.568509	-0.661334	-1.567631	0.261631	-0.497540	-0.618672	-0.548860
04461						7.184289	-3.300126	0.832080	-1.656552	-0.500614	-1.279773	0.252401	-0.497084	-0.617946	-0.554386
04462						6.272370	-3.858067	0.931718	-1.516500	-0.457268	-1.077335	0.244077	-0.496890	-0.617027	-0.559289
04463						5.507316	-4.243737	0.386508	-1.102874	-0.565012	-0.945298	0.236908	-0.496875	-0.616979	-0.562429
04464						4.978831	-4.537690	-0.534833	-0.359764	-0.828528	-0.843353	0.230958	-0.497009	-0.619070	-0.562488
04465						5.063652	-4.617786	-2.042176	0.617170	-1.360022	-0.661105	0.226380	-0.498048	-0.624015	-0.557947
04466						5.954882	-4.206366	-3.532941	1.600913	-1.757429	-0.425666	0.223565	-0.499788	-0.631505	-0.549029
04467						6.807304	-2.773240	-2.419203	2.145051	-1.516839	-0.148638	0.223674	-0.501031	-0.639422	-0.538588
04468						7.749897	0.206491	0.698142	1.890907	-0.887895	0.228883	0.226075	-0.502044	-0.644908	-0.530034
04469						8.720651	2.567596	3.661818	1.203551	-0.034848	0.552030	0.230408	-0.502534	-0.646754	-0.525434
04470						9.803390	4.256720	8.114185	0.155318	0.976796	0.611564	0.235471	-0.501794	-0.644477	-0.526693
04471						8.857637	5.627939	5.864446	-0.423486	1.183009	0.770653	0.240210	-0.501636	-0.640035	-0.530109
04472						5.472391	9.131630	-3.442978	0.798573	0.370679	0.512730	0.244633	-0.501407	-0.640334	-0.527938
04473						6.764722	12.245147	-9.786091	1.917224	0.095013	0.362549	0.250656	-0.499938	-0.644356	-0.521574
04474						10.685116	14.560802	-14.316843	1.538900	0.154221	0.213236	0.255418	-0.498335	-0.647576	-0.516788
04475						8.734854	9.712690	-18.524781	0.602933	0.231376	-0.085445	0.257414	-0.496676	-0.649065	-0.515524
04476						5.669178	2.731193	-15.655751	-0.687000	-0.761803	-0.737435	0.251206	-0.497129	-0.650120	-0.516820
04477						7.269284	3.909069	-10.995567	-1.531176	-1.814034	-0.846079	0.239264	-0.500938	-0.650511	-0.518314
04478						9.613678	7.654081	-6.919248	-1.333994	-1.748510	-0.452174	0.228927	-0.505558	-0.650305	-0.518755
04479						9.303728	7.411528	-3.234925	-0.901854	-1.449900	0.087424	0.222118	-0.510605	-0.649398	-0.517907
04480						11.538569	5.414729	8.112888	-1.643528	-0.885932	0.679298	0.216663	-0.516900	-0.644429	-0.520176
04481						27.216139	4.570473	1.958535	-2.358855	-1.603787	1.743098	0.209869	-0.529159	-0.635454	-0.521674
04482						25.608709	3.892202	-2.637870	-0.947108	0.861683	2.317735	0.216001	-0.535245	-0.625894	-0.524512
04483						8.061140	4.517202	5.722216	-1.318442	1.725320	1.865981	0.222709	-0.537918	-0.615535	-0.531189
04484						6.865993	4.494666	-0.983443	-1.864603	-0.070938	1.653504	0.221734	-0.545261	-0.606130	-0.534911
04485						9.572617	3.193014	-4.809021	-2.128419	-0.480824	1.125461	0.217434	-0.552267	-0.597876	-0.538765
04486						8.634893	2.451633	-3.190063	-2.021765	-0.313861	0.089405	0.211015	-0.555592	-0.592445	-0.543875
04487						9.997796	-1.837167	0.524403	-2.218014	-0.503627	-0.269845	0.202580	-0.558456	-0.587674	-0.549297
04488						14.730310	-5.329514	-1.073779	-1.661348	-0.579696	-0.115817	0.195789	-0.561422	-0.583933	-0.552716
04489						15.354345	-7.026060	-4.677858	-0.645980	-0.132871	0.398423	0.194653	-0.563572	-0.581174	-0.553836
04490						13.126661	-9.312791	-3.682170	-0.279102	0.288749	0.943561	0.197215	-0.565863	-0.577350	-0.554592
04491						11.501937	-11.067728	-1.035596	-0.387926	0.590461	1.759749	0.202659	-0.569654	-0.570706	-0.555624
04492						9.342332	-10.722325	-2.391201	-0.090687	0.591236	2.575159	0.211146	-0.575523	-0.562322	-0.554963
04493						8.756666	-8.081396	-2.538528	0.627856	0.469276	2.792868	0.221966	-0.581342	-0.555493	-0.551543
04494						9.755768	-7.011361	-2.662907	1.269742	0.516493	2.705524	0.234461	-0.586114	-0.550302	-0.546503
04495						10.587597	-5.670023	-4.246635	1.849427	0.410189	2.366703	0.247416	-0.589262	-0.547897	-0.539782
04496						11.538379	-1.829843	-5.760153	1.989565	0.408277	2.149858	0.260110	-0.591709	-0.546141	-0.532873
04497						13.829441	1.962445	-6.735132	1.990682	0.423784	2.108388	0.272713	-0.593678	-0.544619	-0.525895
04498						11.483351	3.791707	-5.974551	2.004553	0.702200	2.005496	0.285767	-0.594684	-0.542694	-0.519781
04499						8.249597	4.815956	-3.546591	1.990451	0.737191	1.665335	0.297955	-0.594382	-0.541834	-0.514149
04500						6.710511	5.471114	-2.601365	1.777817	0.437519	1.552194	0.308345	-0.594944	-0.540890	-0.508333
04501						6.148604	5.945034	-2.245701	1.459948	0.262821	1.540524	0.317265	-0.596151	-0.539604	-0.502768
04502						6.059679	5.714032	-1.827160	1.114601	0.243652	1.566805	0.325116	-0.598126	-0.537129	-0.498034
04503						7.068415	4.949801	-1.484244	0.788427	0.278828	1.603840	0.332172	-0.600426	-0.533843	-0.494128
04504						7.925009	3.801741	-1.352574	0.481597	0.399997	1.680164	0.338772	-0.603236	-0.529122	-0.491294
04505						8.337023	2.559692	-1.403503	0.184257	0.539478	1.805942	0.345144	-0.606343	-0.523213	-0.489359
04506						8.751369	1.348895	-1.543150	-0.035892	0.651391	1.925434	0.351369	-0.609952	-0.515950	-0.488154
04507						8.875376	0.204726	-1.658949	-0.167990	0.708703	1.937354	0.357364	-0.613477	-0.508382	-0.487325
04508						8.278768	-0.478002	-1.811513	-0.187336	0.727518	1.840740	0.363045	-0.616815	-0.500766	-0.486797
04509						7.071989	-0.841831	-1.798264	-0.132435	0.708956	1.683768	0.368464	-0.619515	-0.493966	-0.486244
04510						6.418907	-0.707422	-1.435221	-0.024734	0.633793	1.535095	0.373611	-0.621915	-0.487774	-0.485503
04511						6.804129	-0.160342	-1.342401	0.143896	0.467931	1.435357	0.378642	-0.623989	-0.482795	-0.483918
04512						8.085824	0.833618	-1.998216	0.538243	0.207384	1.386893	0.384113	-0.625916	-0.479176	-0.480704
04513						9.435668	1.757710	-3.050846	1.091348	0.043885	1.339863	0.390809	-0.626897	-0.477528	-0.475642
04514						9.938076	2.396739	-3.846885	1.592944	0.086744	1.234986	0.398871	-0.626607	-0.477070	-0.469755
04515						9.723652	3.113690	-4.783783	1.996494	0.175429	1.078811	0.408022	-0.624743	-0.478022	-0.463367
04516						9.140466	4.091533	-5.588841	2.278623	0.236674	0.944438	0.417803	-0.621860	-0.479669	-0.456780
04517						8.854129	5.045982	-5.460471	2.281048	0.217369	0.836506	0.427267	-0.618555	-0.481812	-0.450211
04518						8.909889	5.413775	-5.765560	2.015743	0.124324	0.756534	0.435421	-0.615842	-0.483592	-0.444169
04519						9.228872	5.369653	-6.085694	1.582181	0.063275	0.678558	0.441907	-0.613871	-0.484885	-0.439053
04520						9.386999	4.910673	-5.814861	1.152805	0.094989	0.599419	0.446918	-0.612627	-0.485267	-0.435279
04521						9.203192	4.601982	-5.120278	0.875715	0.191634	0.489749	0.451097	-0.611429	-0.485263	-0.432650
04522						9.062235	4.928780	-4.582019	0.697670	0.222157	0.334819	0.454468	-0.610189	-0.485243	-0.430892
04523						8.814391	4.987907	-4.828970	0.481675	0.219437	0.073956	0.456599	-0.608794	-0.485579	-0.430232
04524						8.302377	4.927454	-6.106777	0.289628	0.180902	-0.274203	0.457245	-0.607129	-0.486588	-0.430759
04525						8.714981	6.493278	-7.590801	0.455710	-0.013743	-0.620926	0.457225	-0.604597	-0.489507	-0.431034
04526						11.117515	9.114145	-9.883972	0.858840	-0.445489	-0.970020	0.456535	-0.601245	-0.495300	-0.429834
04527						8.711845	6.714542	-9.926167	0.415866	-0.352088	-1.428908	0.453800	-0.597492	-0.501303	-0.431004
04528						7.791120	6.724571	-5.044121	0.408450	-0.146012	-2.101585	0.450052	-0.591531	-0.508888	-0.434254
04529						8.684690	8.221803	-0.092739	0.213618	0.465719	-2.856107	0.445591	-0.582705	-0.516721	-0.441478
04530						7.771928	9.945130	2.817709	-0.050823	0.743560	-3.353459	0.439751	-0.572460	-0.524697	-0.451222
04531						8.118808	7.829974	2.801107	-1.143335	0.247424	-3.398136	0.429361	-0.565403	-0.531237	-0.462338
04532						14.069557	5.362605	0.308798	-2.255199	-0.002956	-3.559087	0.414579	-0.560601	-0.536096	-0.475870
04533						21.526831	4.241611	-2.760700	-2.344800	-0.013904	-3.921229	0.398501	-0.554831	-0.541418	-0.490128
04534						29.296207	-1.499869	-5.064748	-1.528196	-0.576822	-3.208892	0.384686	-0.550436	-0.547746	-0.499010
04535						24.966491	-8.670659	-5.357950	-0.819392	0.113726	-2.620625	0.376136	-0.544493	-0.552664	-0.506568
04536						15.488940	-13.261906	-3.134218	-0.170955	0.450545	-2.269415	0.371069	-0.537303	-0.557615	-0.512522
04537						10.880770	-12.115179	-2.253678	0.102834	-0.098150	-2.066707	0.365723	-0.531566	-0.563603	-0.515787
04538						8.149598	-5.056688	-2.936802	-0.097932	-0.289352	-2.333075	0.358557	-0.525841	-0.570106	-0.519526
04539						9.402170	2.509480	-3.815695	0.035059	-0.786823	-2.722563	0.349266	-0.520001	-0.578728	-0.522194
04540						10.812573	5.129450	-3.985674	0.826185	-0.981607	-2.891578	0.340856	-0.512740	-0.590044	-0.522267
04541						9.427228	4.853603	-2.478817	1.274318	-0.822832	-2.864897	0.334137	-0.504190	-0.602059	-0.521219
04542						8.053343	4.105626	-0.858261	0.837768	-0.805689	-2.882449	0.326136	-0.496209	-0.612781	-0.521451
04543						8.083447	3.206805	-0.096443	0.180989	-0.976768	-2.833630	0.316134	-0.489714	-0.621825	-0.523042
04544						8.789142	2.295129	-0.041743	-0.369217	-1.046072	-2.611426	0.304979	-0.484922	-0.628836	-0.525741
04545						9.253824	1.745313	-0.282282	-0.702874	-0.963325	-2.379380	0.293931	-0.480993	-0.634188	-0.529204
04546						9.124845	0.822798	-0.188449	-0.917990	-0.836027	-2.150828	0.283222	-0.477758	-0.638092	-0.533264
04547						8.882266	-0.493669	0.082177	-1.162373	-0.726900	-1.856185	0.273124	-0.475379	-0.640430	-0.537836
04548						8.480305	-1.894153	0.143380	-1.318671	-0.604087	-1.504642	0.263862	-0.474030	-0.641217	-0.542691
04549						7.593695	-2.893521	0.137946	-1.312052	-0.486983	-1.198973	0.255892	-0.473209	-0.641129	-0.547308
04550						6.462160	-3.465906	-0.068522	-1.047418	-0.463590	-0.989742	0.249098	-0.472704	-0.641136	-0.550859
04551						5.618928	-4.026662	-0.279106	-0.502173	-0.648093	-0.822451	0.243529	-0.472460	-0.642509	-0.551958
04552						5.332940	-4.764433	-0.521208	0.191091	-1.072353	-0.639635	0.238659	-0.473212	-0.645782	-0.549617
04553						5.611352	-5.048812	-1.143655	0.896328	-1.443813	-0.451456	0.234833	-0.474624	-0.651027	-0.543829
04554						6.262866	-4.371196	-0.636328	1.323031	-1.599525	-0.160458	0.232216	-0.476986	-0.656772	-0.535920
04555						6.980709	-1.220966	1.681054	0.907469	-1.394555	0.283277	0.230517	-0.480572	-0.660139	-0.529272
04556						7.938420	2.580059	3.777382	-0.141395	-0.752335	0.773579	0.229633	-0.485416	-0.658661	-0.527074
04557						8.674051	5.787884	7.603710	-1.505725	0.327332	0.909567	0.229410	-0.489247	-0.652099	-0.531766
04558						10.777023	6.627331	8.677209	-2.905749	1.307591	1.005669	0.229095	-0.492464	-0.640185	-0.543285
04559						6.922341	8.733643	-0.166605	-2.121445	0.916811	0.804562	0.228939	-0.494933	-0.631359	-0.551375
04560						5.262434	10.925092	-9.967605	0.034944	-0.203729	0.490492	0.229598	-0.497166	-0.630299	-0.550304
04561						7.799841	14.723125	-15.658521	0.964611	-0.515081	0.339807	0.231269	-0.498530	-0.632705	-0.545589
04562						11.050039	14.394865	-17.501148	0.648509	-0.150837	0.229741	0.232911	-0.499035	-0.633962	-0.542963
04563						8.228773	3.515514	-16.311168	0.171589	-0.289088	-0.395885	0.231312	-0.498354	-0.635766	-0.542162
04564						8.426946	0.253484	-10.732816	-0.609415	-1.102647	-0.868943	0.223824	-0.499352	-0.637494	-0.542358
04565						9.335670	1.937835	-6.223983	-0.664097	-1.364552	-0.473593	0.216491	-0.502260	-0.638398	-0.541585
04566						8.572009	3.962203	-3.541274	-0.212672	-1.437005	0.042853	0.211388	-0.506586	-0.639226	-0.538587
04567						7.375891	3.974738	-0.730213	-0.059553	-1.381210	0.426103	0.207930	-0.511707	-0.639445	-0.534819
04568						13.859303	3.237376	8.667281	-1.205686	-0.965230	1.160469	0.204755	-0.519316	-0.634188	-0.534969
04569						28.869714	4.036289	-1.119358	-1.779043	-2.023128	1.996765	0.198998	-0.532797	-0.626244	-0.533241
04570						22.692646	4.943510	-3.432049	-0.208436	1.029261	2.387194	0.207914	-0.537809	-0.618150	-0.534251
04571						7.116571	4.636512	6.610012	-0.695776	2.008270	1.855489	0.217151	-0.538840	-0.609171	-0.539823
04572						7.136010	4.439274	-0.635176	-0.950842	0.035086	1.721488	0.219237	-0.545115	-0.601770	-0.540978
04573						8.485618	3.893649	-2.301979	-1.553148	-0.510320	1.321450	0.216997	-0.552136	-0.594511	-0.542785
04574						6.918740	4.014978	-0.871367	-2.053196	-0.244680	0.275444	0.211220	-0.555954	-0.588261	-0.547951
04575						8.677167	0.799350	-0.140347	-2.092604	-0.370595	-0.262657	0.203547	-0.558367	-0.583633	-0.553324
04576						13.773578	-2.423941	-1.951380	-1.607925	-0.694369	-0.191881	0.196376	-0.561481	-0.580244	-0.556320
04577						15.964781	-4.202857	-4.540134	-0.645127	-0.279181	0.290110	0.194525	-0.563721	-0.577922	-0.557121
04578						13.515993	-6.355411	-4.896439	-0.202639	0.189295	0.773790	0.196625	-0.565709	-0.574864	-0.557533
04579						12.198417	-8.671404	-2.592908	-0.403654	0.449311	1.503947	0.200926	-0.569150	-0.569042	-0.558470
04580						10.411812	-9.965598	-2.802999	-0.455227	0.639285	2.430127	0.208202	-0.574800	-0.560015	-0.559142
04581						7.702648	-8.371070	-3.251049	0.019326	0.557254	2.860038	0.217757	-0.581163	-0.551228	-0.557656
04582						7.834204	-7.627078	-2.727730	0.780457	0.438935	2.777561	0.228954	-0.586811	-0.544619	-0.553735
04583						10.054312	-6.319537	-3.661203	1.330903	0.304984	2.441947	0.240394	-0.591030	-0.540755	-0.548160
04584						11.459844	-2.570553	-5.107146	1.366356	0.272822	2.140872	0.251030	-0.594521	-0.537604	-0.542688
04585						12.088423	0.913758	-5.901028	1.350320	0.301222	2.119874	0.261552	-0.597654	-0.534564	-0.537253
04586						12.987897	3.149184	-5.872558	1.460387	0.406887	2.185947	0.272875	-0.600581	-0.531178	-0.531687
04587						8.311723	4.461997	-4.138779	1.494169	0.784078	1.939896	0.284545	-0.601556	-0.528231	-0.527387
04588						6.465477	5.022720	-2.719090	1.452655	0.564120	1.768862	0.295074	-0.602761	-0.525716	-0.522718
04589						5.688584	5.240852	-2.265722	1.369033	0.284621	1.649008	0.304208	-0.604292	-0.523893	-0.517519
04590						5.568188	4.791588	-1.494498	1.390435	0.250396	1.555514	0.313096	-0.605686	-0.522208	-0.512264
04591						6.147432	3.947400	-1.015913	1.373941	0.274468	1.535688	0.321858	-0.606805	-0.520638	-0.507082
04592						6.938942	2.909332	-0.960060	1.226998	0.365624	1.591186	0.330569	-0.608120	-0.518138	-0.502442
04593						7.502731	2.092574	-0.910824	0.985743	0.498484	1.725076	0.339142	-0.609671	-0.514538	-0.498533
04594						8.165712	1.533096	-0.620486	0.670975	0.633310	1.855680	0.347440	-0.611795	-0.509283	-0.495603
04595						8.617383	1.112656	-0.516062	0.352389	0.689807	1.873663	0.354868	-0.614210	-0.503221	-0.493542
04596						9.235789	0.734477	-0.808253	0.184550	0.723987	1.750003	0.361572	-0.616567	-0.496818	-0.492222
04597						9.400770	0.710344	-1.287353	0.196228	0.799165	1.524380	0.367869	-0.618005	-0.491159	-0.491431
04598						8.556086	0.629773	-1.211583	0.243102	0.832241	1.284108	0.373819	-0.618741	-0.486062	-0.491083
04599						7.781533	0.862066	-0.728297	0.235724	0.647344	1.153935	0.378915	-0.619499	-0.481870	-0.490352
04600						7.947275	1.301822	-0.985521	0.299618	0.260182	1.142606	0.383273	-0.621124	-0.478380	-0.488322
04601						8.637125	1.644986	-2.491346	0.611330	-0.134524	1.197985	0.387735	-0.623130	-0.476420	-0.484143
04602						9.403960	1.790662	-4.773384	1.051618	-0.311568	1.235401	0.393255	-0.624851	-0.475525	-0.478318
04603						9.654212	1.850664	-6.427697	1.516199	-0.258099	1.193775	0.400184	-0.625293	-0.475927	-0.471544
04604						9.428171	1.928446	-7.014995	1.994240	-0.189844	1.075983	0.408489	-0.624345	-0.477458	-0.464073
04605						9.701886	2.410317	-6.786801	2.466427	-0.182312	0.929687	0.417845	-0.621893	-0.480631	-0.455685
04606						10.079533	2.998388	-6.616892	2.643234	-0.049574	0.756709	0.427642	-0.618306	-0.484233	-0.447592
04607						10.353466	3.609413	-6.993299	2.380983	0.097785	0.611811	0.436547	-0.614428	-0.487446	-0.440796
04608						10.268837	4.596707	-6.856639	1.931613	0.263004	0.494410	0.444201	-0.610856	-0.489492	-0.435819
04609						10.091740	5.773824	-5.793142	1.597704	0.440766	0.376172	0.450934	-0.607243	-0.490849	-0.432414
04610						9.105053	6.582957	-4.557212	1.336838	0.528515	0.205432	0.456727	-0.603612	-0.491848	-0.430278
04611						8.595703	6.769736	-4.189645	0.974775	0.408026	0.011322	0.460661	-0.600525	-0.492993	-0.429090
04612						8.207237	6.329253	-5.741057	0.536633	0.207544	-0.228037	0.462288	-0.598304	-0.494309	-0.428929
04613						8.800302	7.248641	-7.703961	0.355791	-0.022518	-0.485640	0.462224	-0.596324	-0.496596	-0.429113
04614						11.202198	9.571428	-9.334370	0.399901	-0.296776	-0.772991	0.461003	-0.594123	-0.500435	-0.429021
04615						9.315643	7.356349	-8.769387	-0.144029	-0.186762	-1.155138	0.457593	-0.591952	-0.504000	-0.431492
04616						8.425976	7.583418	-3.760057	-0.237460	-0.114048	-1.708565	0.452876	-0.588407	-0.508829	-0.435631
04617						8.899677	7.981689	0.279760	-0.485648	0.281259	-2.309600	0.447071	-0.582973	-0.513913	-0.442903
04618						7.263153	8.579193	3.843836	-0.848335	0.665079	-2.753035	0.440126	-0.576241	-0.518568	-0.453125
04619						6.601110	5.894420	2.658506	-2.116559	0.119501	-2.807425	0.427880	-0.573257	-0.521537	-0.465075
04620						11.829344	3.657479	-0.349859	-3.096768	-0.117631	-3.073466	0.411399	-0.571983	-0.523308	-0.479307
04621						18.196313	3.848755	-3.542635	-2.468643	-0.513766	-3.616344	0.394198	-0.568687	-0.528682	-0.491628
04622						27.432284	-0.825298	-5.894079	-1.277502	-1.000683	-3.250878	0.379807	-0.564953	-0.536702	-0.498523
04623						25.407626	-8.273955	-6.102124	-0.431888	-0.308315	-2.642070	0.371109	-0.559397	-0.543643	-0.503792
04624						18.609695	-12.008892	-4.503850	0.184495	0.838357	-2.451312	0.367650	-0.550217	-0.549384	-0.510169
04625						11.013241	-11.884138	-1.801067	0.590357	0.435963	-2.151885	0.364927	-0.542069	-0.555989	-0.513678
04626						7.543944	-6.343713	-2.884837	0.222556	-0.048981	-2.240909	0.359588	-0.535529	-0.562691	-0.516996
04627						8.092180	1.314131	-4.310157	0.266339	-0.620652	-2.714795	0.351470	-0.528959	-0.571725	-0.519424
04628						10.185396	4.933518	-4.238819	1.061470	-0.992495	-2.953583	0.343703	-0.521164	-0.583965	-0.518885
04629						9.654414	5.185692	-2.082779	1.690106	-0.840456	-2.953768	0.337905	-0.511730	-0.597417	-0.516765
04630						8.801373	4.087047	0.078716	1.432775	-0.837227	-2.863225	0.331604	-0.502850	-0.609788	-0.515110
04631						9.132994	3.617117	0.679537	0.690412	-0.993886	-2.808847	0.323005	-0.495636	-0.620219	-0.515112
04632						9.763056	2.771485	0.610588	0.037219	-1.034556	-2.601717	0.313129	-0.490128	-0.628372	-0.516598
04633						9.844068	1.825850	0.060592	-0.365684	-1.021561	-2.351828	0.302890	-0.485902	-0.634751	-0.518891
04634						9.292922	0.763704	-0.047067	-0.616656	-0.957180	-2.142574	0.292744	-0.482496	-0.639743	-0.521754
04635						8.946938	-0.497141	0.379343	-0.909204	-0.840453	-1.906885	0.282836	-0.479881	-0.643174	-0.525401
04636						8.451520	-1.848933	0.555300	-1.201039	-0.686898	-1.590796	0.273522	-0.478265	-0.644740	-0.529867
04637						7.414477	-2.861871	0.478648	-1.317100	-0.579151	-1.300644	0.265013	-0.477377	-0.645135	-0.534490
04638						6.143469	-3.599868	0.414325	-1.201806	-0.526891	-1.111508	0.257441	-0.476813	-0.645203	-0.538596
04639						5.023371	-4.187474	0.256501	-0.825666	-0.602623	-1.006714	0.250777	-0.476231	-0.646151	-0.541113
04640						4.574498	-4.784112	-0.039161	-0.223471	-0.876679	-0.913868	0.244918	-0.475972	-0.648749	-0.540917
04641						5.009206	-5.019397	-0.889598	0.535065	-1.335450	-0.729578	0.239845	-0.476538	-0.653559	-0.536887
04642						6.170652	-4.427931	-1.745643	1.308861	-1.732471	-0.392210	0.236229	-0.478370	-0.659978	-0.528949
04643						7.325914	-2.174761	-0.385030	1.551340	-1.766749	0.078984	0.234269	-0.481429	-0.665945	-0.519482
04644						8.138963	1.870956	1.852078	0.925241	-1.336084	0.624432	0.233666	-0.485948	-0.668310	-0.512461
04645						8.748212	4.894152	4.315467	-0.024318	-0.437158	0.922577	0.234475	-0.490164	-0.666521	-0.510403
04646						10.301461	7.358357	10.818606	-1.772440	1.065692	0.967104	0.236132	-0.492799	-0.658231	-0.517805
04647						9.302409	8.011979	6.444879	-2.639309	1.784666	1.029617	0.238102	-0.494606	-0.646675	-0.529607
04648						4.962309	9.981848	-6.348081	-0.340919	0.554620	0.581518	0.240561	-0.495529	-0.643511	-0.531484
04649						5.142753	13.292188	-13.201837	1.679281	-0.154668	0.312577	0.245013	-0.494899	-0.647374	-0.525310
04650						8.896015	15.928973	-15.059560	1.149519	0.057754	0.408297	0.249084	-0.494733	-0.649184	-0.521302
04651						8.693072	8.489154	-17.322214	0.157839	-0.109019	0.283329	0.249826	-0.495731	-0.649042	-0.520175
04652						9.309802	0.273219	-14.062890	-0.856684	-0.786412	-0.602181	0.243557	-0.496926	-0.649217	-0.521787
04653						8.652958	0.665333	-9.322210	-1.373113	-1.148006	-0.706924	0.234531	-0.499267	-0.648771	-0.524236
04654						9.341279	3.741117	-4.097018	-0.951051	-1.210972	-0.290346	0.227457	-0.502631	-0.648378	-0.524625
04655						8.243721	3.877458	2.976816	-0.697694	-1.267427	0.097018	0.221811	-0.507042	-0.647740	-0.523584
04656						23.923674	4.662948	4.813181	-1.975145	-2.038985	0.754231	0.212144	-0.516997	-0.642811	-0.523930
04657						28.214420	5.885729	-5.060636	-0.909354	-0.928278	1.678096	0.211161	-0.525749	-0.637052	-0.522650
04658						16.104424	6.913447	3.475579	-0.902599	1.642509	2.011161	0.219246	-0.528838	-0.627521	-0.527711
04659						8.001630	4.846037	4.795685	-1.534035	1.279833	1.568015	0.223292	-0.532012	-0.617887	-0.534154
04660						7.866688	3.390451	-2.809443	-1.098481	-0.377397	0.930999	0.221660	-0.537195	-0.612749	-0.535562
04661						8.013249	0.021351	-1.660045	-1.071348	-0.476467	-0.045596	0.217164	-0.539502	-0.610533	-0.537612
04662						8.865458	-2.472521	-1.672979	-0.652902	-0.434206	-0.605663	0.212423	-0.539614	-0.610740	-0.539156
04663						12.507746	-4.080540	-1.958912	-0.951607	-0.551208	-0.433522	0.206968	-0.540770	-0.609931	-0.541032
04664						15.264853	-5.091085	-4.605529	-0.146437	-0.291984	0.265127	0.206383	-0.542626	-0.608966	-0.540484
04665						11.858128	-8.036716	-3.449517	0.512491	0.199400	0.957001	0.210931	-0.544457	-0.607552	-0.538475
04666						10.707856	-9.148871	-1.855465	0.202186	0.256058	1.539923	0.216401	-0.548340	-0.603444	-0.536981
04667						10.988786	-8.889130	-1.344792	0.013625	0.464037	2.362675	0.224134	-0.554162	-0.596469	-0.535624
04668						11.120871	-6.128502	-2.196834	0.200824	0.449465	2.847792	0.233652	-0.561311	-0.588352	-0.533084
04669						10.592668	-4.000583	-2.699054	0.427042	0.662156	2.793563	0.244187	-0.567200	-0.580827	-0.530374
04670						11.175316	-3.125713	-3.944289	1.028848	0.681215	2.494776	0.255704	-0.571479	-0.575372	-0.526284
04671						11.388157	-1.382037	-5.192414	1.458701	0.595327	2.178066	0.267260	-0.574256	-0.572187	-0.520964
04672						11.985067	1.591936	-5.687277	1.424141	0.594389	2.051117	0.278411	-0.576777	-0.568943	-0.515867
04673						7.631172	2.518857	-5.012127	1.228637	0.778195	1.881505	0.288970	-0.578366	-0.565576	-0.511969
04674						7.315599	3.189698	-3.813050	1.139184	0.500045	1.704645	0.298069	-0.580372	-0.562594	-0.507752
04675						7.293597	3.546087	-3.535698	1.007064	0.217388	1.732762	0.305955	-0.583159	-0.559783	-0.502950
04676						7.238425	3.665964	-3.383864	0.879127	0.188266	1.727300	0.313418	-0.586281	-0.556433	-0.498424
04677						7.149646	3.254402	-2.891649	0.798228	0.254720	1.645364	0.320523	-0.588944	-0.553190	-0.494359
04678						7.445618	2.348187	-2.029996	0.740642	0.237541	1.627706	0.327417	-0.591772	-0.549622	-0.490428
04679						7.502426	1.604984	-1.418767	0.657749	0.271244	1.693208	0.334217	-0.594655	-0.545772	-0.486640
04680						7.350642	1.215667	-1.281917	0.610618	0.321193	1.838772	0.341408	-0.597960	-0.541027	-0.482881
04681						7.473242	0.825162	-1.210785	0.587364	0.451452	1.980357	0.349118	-0.601188	-0.535738	-0.479243
04682						8.087155	0.396464	-1.094027	0.583736	0.579145	1.999204	0.357232	-0.604214	-0.529874	-0.475966
04683						8.655538	0.261140	-1.162664	0.613696	0.618296	1.883357	0.365157	-0.606602	-0.524527	-0.472828
04684						8.815555	0.328901	-1.318794	0.691916	0.666944	1.670961	0.372985	-0.608223	-0.519637	-0.470024
04685						8.226290	0.565738	-1.223207	0.803383	0.735285	1.429070	0.380653	-0.608684	-0.515802	-0.467499
04686						7.585362	1.089686	-1.080686	0.893675	0.614488	1.260168	0.387929	-0.608879	-0.512651	-0.464722
04687						7.821176	1.770682	-1.537123	0.976468	0.303414	1.209026	0.394448	-0.609359	-0.510649	-0.460793
04688						8.453776	2.170362	-3.093699	1.064783	-0.050044	1.249253	0.400463	-0.610636	-0.509157	-0.455535
04689						8.887063	2.572999	-5.111857	1.333839	-0.222676	1.261007	0.406795	-0.611655	-0.508784	-0.448926
04690						8.946104	3.401273	-6.551845	1.757093	-0.152318	1.182967	0.414446	-0.611492	-0.509191	-0.441630
04691						8.557971	4.279139	-6.598463	2.099601	-0.064452	1.043057	0.422947	-0.609896	-0.510752	-0.433907
04692						8.327203	4.480674	-5.898359	2.257683	-0.043926	0.894541	0.431663	-0.607534	-0.512799	-0.426153
04693						8.757190	3.834591	-5.588687	2.215815	-0.045537	0.729027	0.439773	-0.604676	-0.515384	-0.418743
04694						9.797352	3.521021	-5.910864	1.946175	-0.005147	0.569955	0.446844	-0.601911	-0.517568	-0.412500
04695						10.510907	3.857700	-5.954784	1.471277	0.144234	0.472740	0.452580	-0.599531	-0.518857	-0.408071
04696						10.307568	4.542067	-5.039026	1.019814	0.343427	0.427778	0.457420	-0.597678	-0.518739	-0.405532
04697						9.910601	5.107934	-3.755133	0.776387	0.464477	0.386368	0.461696	-0.595955	-0.518106	-0.404031
04698						9.077425	4.919840	-3.465582	0.666052	0.504803	0.280200	0.465569	-0.594152	-0.517335	-0.403229
04699						8.547121	4.044739	-4.504366	0.555925	0.403081	0.099878	0.468435	-0.592299	-0.517233	-0.402767
04700						8.554116	3.709192	-7.224257	0.521500	0.184780	-0.111166	0.470225	-0.590459	-0.518075	-0.402301
04701						10.882428	6.230481	-9.162271	0.878204	-0.191284	-0.331776	0.471622	-0.587912	-0.521280	-0.400250
04702						10.870108	5.424562	-11.048318	0.647046	-0.318415	-0.670997	0.471331	-0.585297	-0.525223	-0.399270
04703						8.689511	5.194857	-8.416950	0.400597	-0.294823	-1.140721	0.469415	-0.581933	-0.530060	-0.400049
04704						10.057344	7.395366	-3.984928	0.372623	-0.002218	-1.801573	0.466847	-0.576266	-0.536008	-0.403320
04705						10.118016	8.710841	-0.247864	-0.102383	0.682864	-2.469190	0.463337	-0.568462	-0.541292	-0.411306
04706						8.040760	9.886561	1.806526	-0.538850	0.732768	-2.858824	0.457857	-0.560333	-0.546562	-0.421501
04707						6.288623	8.332051	2.596708	-1.723483	0.363512	-2.950661	0.447709	-0.555365	-0.550297	-0.433936
04708						11.271627	7.122342	1.085454	-2.966430	0.037196	-3.111307	0.432658	-0.553214	-0.552266	-0.449181
04709						15.698019	5.765866	-2.743647	-3.314197	-0.398349	-3.427022	0.414543	-0.551655	-0.555018	-0.464528
04710						24.043471	2.321275	-5.545310	-2.732451	-0.833884	-3.281869	0.396859	-0.549979	-0.559295	-0.476670
04711						24.401121	-4.006728	-5.150518	-1.949818	-0.524848	-2.601853	0.383746	-0.547746	-0.562779	-0.485791
04712						19.958060	-8.712969	-4.524775	-1.559304	0.413119	-2.308180	0.374960	-0.543126	-0.564430	-0.495821
04713						13.608378	-11.848771	-3.080853	-0.837215	0.527573	-2.083857	0.368955	-0.537468	-0.566997	-0.503503
04714						9.961756	-8.778251	-2.349380	-0.557635	0.190679	-2.102515	0.362752	-0.531951	-0.570803	-0.509533
04715						8.778064	-1.010534	-3.041864	-0.504894	-0.177674	-2.520201	0.354422	-0.526080	-0.576504	-0.515042
04716						10.227933	3.040763	-4.070786	0.039707	-0.498119	-2.783044	0.345870	-0.519191	-0.584686	-0.518610
04717						10.146360	3.827199	-3.530127	0.712151	-0.497321	-2.858510	0.338784	-0.510831	-0.594757	-0.520135
04718						9.153211	3.456185	-1.408838	0.712587	-0.525799	-2.888406	0.331514	-0.502322	-0.604739	-0.521595
04719						9.174051	2.861239	-0.321250	0.199595	-0.722129	-2.895943	0.322212	-0.495058	-0.613670	-0.523933
04720						9.613192	2.215106	0.001828	-0.320674	-0.734095	-2.786751	0.311863	-0.488891	-0.620760	-0.527621
04721						9.904569	1.326767	-0.036997	-0.660576	-0.651421	-2.605182	0.301294	-0.483502	-0.626349	-0.532104
04722						9.590715	0.143378	-0.265981	-0.858654	-0.541496	-2.423037	0.291050	-0.478649	-0.630523	-0.537240
04723						8.817305	-1.057857	-0.267638	-1.047100	-0.407572	-2.217323	0.281251	-0.474234	-0.633567	-0.542764
04724						8.095271	-2.312855	0.132479	-1.174123	-0.201398	-1.935868	0.272476	-0.470412	-0.635003	-0.548853
04725						6.979511	-3.229317	0.052359	-1.085203	-0.146722	-1.651627	0.264882	-0.467020	-0.636084	-0.554190
04726						5.956980	-4.117648	-0.579326	-0.784142	-0.228946	-1.417970	0.258292	-0.464346	-0.637311	-0.558124
04727						5.308872	-4.887575	-1.350534	-0.241454	-0.376651	-1.241618	0.253031	-0.461736	-0.639997	-0.559623
04728						4.932185	-5.661759	-1.843118	0.441223	-0.657113	-1.064063	0.248844	-0.459812	-0.644332	-0.558109
04729						4.812806	-6.427838	-2.861593	1.256922	-1.068629	-0.883526	0.245784	-0.458357	-0.651177	-0.552690
04730						4.968624	-6.516697	-2.990415	2.146019	-1.393321	-0.685600	0.244136	-0.457534	-0.660152	-0.543378
04731						5.244372	-4.309916	-0.942611	2.578396	-1.645931	-0.310996	0.243698	-0.457772	-0.669804	-0.531431
04732						6.764293	0.157820	1.713692	2.020552	-1.692890	0.376507	0.243500	-0.461314	-0.676114	-0.520353
04733						8.622064	4.561363	5.724787	0.657620	-0.834078	0.914944	0.244542	-0.465758	-0.676719	-0.515093
04734						10.252498	7.817524	12.019660	-1.794454	0.699399	1.108687	0.245417	-0.470184	-0.668379	-0.521505
04735						11.948837	9.425015	10.455093	-3.592032	1.931076	1.180870	0.246421	-0.473389	-0.653722	-0.536495
04736						6.727968	10.865268	-3.698194	-1.587769	0.677582	0.807652	0.246872	-0.476443	-0.646405	-0.542418
04737						6.201799	13.246158	-13.469540	1.203013	-0.025659	0.389399	0.250677	-0.476270	-0.648763	-0.537991
04738						8.444231	18.016316	-16.889089	1.733840	-0.154565	0.049126	0.254281	-0.474915	-0.653239	-0.532048
04739						7.662701	12.071504	-19.581850	0.748028	-0.240300	-0.128535	0.254900	-0.474174	-0.655840	-0.529206
04740						6.379966	2.393497	-17.232653	0.021131	-0.662587	-0.640826	0.250991	-0.473956	-0.658109	-0.528452
04741						8.935172	1.570384	-12.293789	-0.508578	-1.269209	-0.895800	0.243205	-0.474978	-0.660463	-0.528238
04742						11.085674	3.455659	-5.330992	-0.547793	-1.306425	-0.217310	0.236936	-0.478511	-0.661004	-0.527222
04743						9.622174	1.914483	7.774913	-1.321000	-1.325539	0.461514	0.230571	-0.485066	-0.657962	-0.527858
04744						25.293263	5.825849	2.482604	-2.136672	-2.725166	1.238328	0.219570	-0.498879	-0.652221	-0.526799
04745						26.214677	7.239044	-0.075246	-1.186498	-0.175629	2.067568	0.221439	-0.507344	-0.644090	-0.527935
04746						14.759475	5.754247	4.990277	-1.929960	1.617471	2.460529	0.228115	-0.513255	-0.630675	-0.535520
04747						5.182527	3.940398	-0.870434	-1.941339	0.795982	1.950284	0.230812	-0.519430	-0.619505	-0.541417
04748						4.053609	2.793179	0.931810	-1.938901	0.033219	0.904585	0.228220	-0.524538	-0.611629	-0.546521
04749						7.466700	1.211001	-1.031806	-1.667432	-0.446121	-0.277557	0.221685	-0.526786	-0.608291	-0.550757
04750						11.831230	0.280653	-3.003263	-1.434182	-0.691326	-0.569257	0.214121	-0.528730	-0.606370	-0.553997
04751						16.535101	-1.924766	-4.328015	-1.066457	-0.751267	0.089619	0.209237	-0.532208	-0.603975	-0.555148
04752						14.414527	-6.490530	-3.226346	0.253218	-0.010199	0.857946	0.212148	-0.534781	-0.602161	-0.553538
04753						11.591928	-9.451836	-1.972642	0.406174	0.251235	1.239863	0.217387	-0.537371	-0.599695	-0.551671
04754						11.990055	-9.854124	-0.995781	-0.191802	0.467098	1.760864	0.222950	-0.541863	-0.593590	-0.551661
04755						10.384804	-8.869971	-2.464504	-0.373568	0.519529	2.558115	0.230486	-0.548387	-0.585003	-0.551289
04756						10.209324	-6.474847	-3.212693	-0.020417	0.531900	2.846203	0.239580	-0.555606	-0.576073	-0.549585
04757						10.537928	-4.630684	-2.994767	0.596983	0.622799	2.657730	0.250281	-0.560777	-0.569533	-0.546370
04758						10.888203	-3.390845	-4.556175	1.175452	0.496757	2.282937	0.260929	-0.564862	-0.565212	-0.541648
04759						10.090320	-1.755575	-5.906574	1.376468	0.440925	2.015021	0.271470	-0.567521	-0.562635	-0.536345
04760						11.121857	0.305462	-5.723257	1.363240	0.514514	2.020835	0.281807	-0.570497	-0.559266	-0.531356
04761						9.166920	2.060633	-4.999058	1.185445	0.648618	2.006844	0.292284	-0.572672	-0.555742	-0.527036
04762						8.768319	3.086812	-4.168276	1.182777	0.402692	1.948869	0.301588	-0.575772	-0.552139	-0.522182
04763						7.835367	3.343527	-3.127634	1.161483	0.215151	1.886867	0.310403	-0.578631	-0.549387	-0.516730
04764						7.092688	3.937173	-2.540746	1.113226	0.149018	1.740362	0.318194	-0.581771	-0.546456	-0.511548
04765						6.894621	4.185604	-2.190349	1.088718	0.083334	1.598333	0.325632	-0.584165	-0.544439	-0.506262
04766						7.192487	3.416365	-1.741902	1.027154	0.027080	1.542707	0.332313	-0.587065	-0.541977	-0.501182
04767						7.847006	2.354606	-1.261198	0.956077	0.100076	1.555989	0.339247	-0.589418	-0.539624	-0.496291
04768						7.980617	1.373078	-1.052990	0.929600	0.279537	1.624366	0.346533	-0.591902	-0.536201	-0.491992
04769						8.372072	0.766124	-1.183694	0.883235	0.463257	1.740188	0.354623	-0.593868	-0.532401	-0.487968
04770						8.879394	0.186065	-1.283245	0.877202	0.564414	1.810685	0.362932	-0.596083	-0.527710	-0.484239
04771						9.395028	-0.290597	-1.298937	0.954734	0.626476	1.791435	0.371718	-0.597528	-0.523524	-0.480322
04772						9.174427	-0.681501	-1.250732	1.010780	0.732698	1.696789	0.380567	-0.598608	-0.519097	-0.476840
04773						8.318318	-1.044523	-1.154496	0.996459	0.775247	1.558202	0.389229	-0.598879	-0.515315	-0.473598
04774						7.795818	-0.909931	-1.177817	0.982179	0.683367	1.444409	0.397156	-0.599381	-0.511537	-0.470466
04775						7.995522	-0.076850	-1.744123	1.010959	0.447804	1.383324	0.404541	-0.599838	-0.508868	-0.466471
04776						8.730155	1.055340	-2.854994	1.081797	0.170176	1.362988	0.411186	-0.601059	-0.506486	-0.461656
04777						9.532769	2.210752	-3.819213	1.305449	0.086500	1.287516	0.418255	-0.601413	-0.505438	-0.455957
04778						9.654470	3.433863	-4.776784	1.733431	0.189980	1.150635	0.426361	-0.600574	-0.505068	-0.449926
04779						9.156345	4.539627	-5.687810	2.239834	0.292932	1.000906	0.436018	-0.597626	-0.506446	-0.442995
04780						8.847135	5.373766	-5.886433	2.590976	0.324891	0.869686	0.446353	-0.593661	-0.508482	-0.435640
04781						8.805966	5.676742	-5.823630	2.588993	0.254658	0.812406	0.456386	-0.589342	-0.511102	-0.427975
04782						9.058831	5.745978	-6.018925	2.135891	0.192819	0.785308	0.464749	-0.586230	-0.512599	-0.421409
04783						9.254133	6.075188	-6.016281	1.479147	0.174743	0.761624	0.471094	-0.584360	-0.513067	-0.416361
04784						9.070716	5.853983	-5.378742	0.841417	0.296524	0.746165	0.475791	-0.583844	-0.511685	-0.413433
04785						8.036819	5.287918	-4.367441	0.388616	0.374673	0.695774	0.479291	-0.583924	-0.509569	-0.411889
04786						7.780860	4.723837	-3.767181	0.162632	0.319339	0.599540	0.481738	-0.584559	-0.507171	-0.411094
04787						7.858352	3.723369	-3.916056	0.002125	0.228867	0.405126	0.483129	-0.585113	-0.505446	-0.410796
04788						8.116437	2.931129	-4.656584	-0.146547	0.109292	0.114314	0.483132	-0.585679	-0.504351	-0.411332
04789						8.280436	2.678342	-6.814059	-0.162141	-0.003863	-0.243760	0.482118	-0.585468	-0.504749	-0.412333
04790						10.385539	5.695672	-8.000597	0.347193	-0.197440	-0.573001	0.481405	-0.583688	-0.507471	-0.412347
04791						11.571500	6.746204	-10.041011	0.601513	-0.319716	-0.980805	0.480291	-0.580405	-0.512342	-0.412256
04792						8.598687	5.499623	-8.269767	0.486770	-0.112786	-1.456543	0.478343	-0.575796	-0.517737	-0.414240
04793						7.984318	5.973091	-3.341621	0.565237	0.175573	-2.120121	0.475978	-0.568562	-0.524568	-0.418343
04794						7.917112	7.246564	0.513257	0.221440	0.683404	-2.825217	0.472377	-0.559207	-0.531310	-0.426446
04795						6.911030	8.242661	1.392951	-0.269425	0.475160	-3.180829	0.466016	-0.550312	-0.538444	-0.435963
04796						8.506746	5.812776	0.572486	-1.438675	0.019044	-3.263076	0.454840	-0.544836	-0.544072	-0.447504
04797						14.140057	5.142609	-1.781626	-2.327686	-0.202589	-3.404088	0.440208	-0.541210	-0.548488	-0.460945
04798						20.326594	4.270539	-3.638457	-2.071758	-0.413453	-3.613508	0.424891	-0.536772	-0.554226	-0.473473
04799						26.753190	-0.123027	-4.213220	-1.433252	-0.639665	-3.085528	0.411876	-0.532703	-0.560395	-0.482227
04800						23.893582	-5.710467	-3.302438	-1.172412	0.155123	-2.586024	0.402771	-0.527532	-0.564012	-0.491301
04801						15.403628	-11.175363	-2.474031	-0.712832	0.411978	-2.223381	0.396534	-0.521651	-0.567260	-0.498856
04802						11.782961	-10.616895	-2.342989	-0.283130	-0.206086	-2.024888	0.390079	-0.517027	-0.572123	-0.503187
04803						9.180533	-4.952657	-2.847587	-0.324286	-0.339751	-2.325986	0.382361	-0.511826	-0.577946	-0.507753
04804						9.430455	1.704645	-3.762991	-0.320556	-0.780133	-2.714034	0.372250	-0.506654	-0.585417	-0.511878
04805						10.307953	4.688802	-3.982604	0.081558	-1.038906	-2.821800	0.362124	-0.500846	-0.594643	-0.514217
04806						9.457008	4.828660	-2.410766	0.416434	-0.943359	-2.805191	0.353014	-0.494259	-0.604291	-0.515676
04807						8.990670	4.037201	-0.734732	0.089500	-0.954599	-2.769176	0.343145	-0.488144	-0.612986	-0.517894
04808						9.635401	3.162774	-0.072318	-0.536184	-1.084077	-2.690701	0.331410	-0.483697	-0.619883	-0.521488
04809						10.728935	1.950354	-0.066779	-0.980321	-1.097076	-2.517415	0.319011	-0.480328	-0.625169	-0.526005
04810						11.175082	0.880972	-0.549223	-1.247117	-0.990248	-2.294445	0.306769	-0.477821	-0.628828	-0.531182
04811						10.722830	-0.183272	-0.937707	-1.370852	-0.924185	-2.111172	0.294925	-0.475698	-0.631593	-0.536490
04812						10.164821	-1.662710	-0.605291	-1.451814	-0.788981	-1.868708	0.283860	-0.474139	-0.633152	-0.541972
04813						9.550404	-2.774689	-0.097852	-1.523626	-0.592612	-1.610608	0.273960	-0.472777	-0.633641	-0.547656
04814						8.564735	-3.484463	0.357463	-1.428220	-0.423202	-1.373104	0.265383	-0.471657	-0.633400	-0.553097
04815						7.540938	-4.038083	0.482196	-1.157917	-0.398130	-1.168500	0.258121	-0.470577	-0.633458	-0.557371
04816						6.761644	-4.243947	0.053032	-0.759500	-0.459593	-1.010439	0.251979	-0.469793	-0.634148	-0.560051
04817						6.170625	-4.433348	-0.313676	-0.230207	-0.648469	-0.852671	0.246961	-0.469188	-0.636313	-0.560338
04818						5.791537	-4.946233	-1.157217	0.359584	-1.099219	-0.677363	0.242322	-0.469851	-0.640090	-0.557499
04819						5.998833	-5.100844	-2.143403	1.039989	-1.506714	-0.457135	0.238629	-0.471306	-0.645859	-0.551175
04820						6.173073	-4.045091	-1.360762	1.487898	-1.736442	-0.083040	0.236176	-0.474262	-0.651998	-0.542397
04821						6.535558	-1.043101	0.938196	1.109036	-1.776870	0.474010	0.234257	-0.479288	-0.655941	-0.533993
04822						7.749445	2.139556	2.648106	0.141439	-1.287349	1.066459	0.233090	-0.486321	-0.655033	-0.529238
04823						8.579867	4.211888	5.391188	-1.117237	-0.300509	1.440653	0.233163	-0.493114	-0.648895	-0.530480
04824						9.558884	7.380716	11.553304	-3.042866	1.363903	1.262703	0.233279	-0.497331	-0.635785	-0.542237
04825						10.996587	7.714895	5.724813	-3.606872	2.053680	1.183484	0.233963	-0.499615	-0.620520	-0.557316
04826						6.221125	9.192469	-6.845200	-0.582532	0.916732	0.828464	0.237521	-0.500570	-0.615468	-0.560546
04827						5.082900	13.654976	-12.165794	1.935483	0.080125	0.441513	0.243808	-0.499381	-0.619661	-0.554253
04828						8.755960	18.163857	-14.664996	1.957568	-0.128128	0.465553	0.249441	-0.499022	-0.623810	-0.547373
04829						7.673997	8.042863	-18.519520	1.039848	-0.372196	0.078738	0.251057	-0.498981	-0.626913	-0.543109
04830						8.014712	0.531220	-15.435524	-0.084254	-1.083868	-0.867462	0.245005	-0.499477	-0.630039	-0.541798
04831						8.697482	2.022204	-9.824302	-0.263681	-1.544720	-1.069091	0.236545	-0.500594	-0.633858	-0.540071
04832						7.786963	4.671649	-4.487652	0.434998	-1.547922	-0.714701	0.230722	-0.502141	-0.638508	-0.535658
04833						7.220837	4.931887	-2.654276	1.124720	-1.495826	-0.284596	0.227969	-0.503918	-0.643931	-0.528630
04834						8.074085	3.886406	2.366469	1.154745	-0.942042	0.126809	0.228117	-0.505642	-0.647607	-0.522392
04835						20.884590	2.142643	7.386895	-1.385314	-1.313966	1.032381	0.223014	-0.513966	-0.642838	-0.522362
04836						27.820873	5.184107	-6.229269	-1.176509	-1.211860	2.113062	0.221515	-0.525380	-0.635463	-0.520667
04837						14.745165	6.013290	2.723659	-0.891135	1.619513	2.306709	0.230271	-0.529422	-0.625220	-0.525155
04838						8.796964	6.685637	11.367750	-2.015865	1.694831	1.841768	0.234957	-0.533181	-0.612827	-0.533813
04839						15.171343	8.517016	-3.885925	-1.617623	-0.479109	1.782368	0.233887	-0.541781	-0.604274	-0.535372
04840						7.802621	8.288024	-14.826909	-2.095560	-0.824863	0.942126	0.228107	-0.549469	-0.596796	-0.538410
04841						2.275118	7.200023	0.727691	-3.735683	-0.062503	-0.470969	0.216320	-0.552395	-0.587998	-0.549840
04842						5.817535	-0.808321	5.242234	-3.181060	-0.101653	-1.536891	0.202885	-0.551689	-0.583327	-0.560542
04843						10.182166	-4.713531	-0.032335	-2.428687	-0.611626	-1.356473	0.190550	-0.551854	-0.580821	-0.567269
04844						18.249462	-5.743966	-6.572985	-1.466478	-0.731379	-0.543305	0.182761	-0.553908	-0.578610	-0.570083
04845						18.449066	-11.802283	-9.348494	0.173968	-0.178777	0.377320	0.183770	-0.555349	-0.578221	-0.568751
04846						12.429460	-13.898479	-3.656864	-0.099462	0.650597	1.561850	0.189656	-0.558364	-0.572709	-0.569442
04847						6.963940	-13.266984	-0.848793	-0.688428	0.899605	2.813143	0.198268	-0.564447	-0.561975	-0.571204
04848						5.501935	-8.870976	-1.229114	0.320464	0.267528	3.152980	0.208639	-0.572553	-0.553277	-0.567924
04849						8.843410	-8.669184	-2.586524	0.941949	-0.020366	3.108686	0.220049	-0.580153	-0.546999	-0.561955
04850						12.384767	-7.259466	-4.577384	1.307368	-0.061386	2.511446	0.230307	-0.586229	-0.542908	-0.555469
04851						16.783724	-2.191956	-7.446726	1.616782	0.082017	1.872312	0.240421	-0.589179	-0.541773	-0.549134
04852						18.647922	4.392714	-8.701652	2.044113	0.251514	1.762064	0.251598	-0.591253	-0.541365	-0.542256
04853						9.615322	5.362079	-4.146155	1.981631	1.133720	1.239563	0.263834	-0.588995	-0.541601	-0.538651
04854						7.145122	6.057242	-1.748394	1.637653	0.576259	1.079301	0.272802	-0.588651	-0.541590	-0.534555
04855						6.433010	6.983652	-2.493633	1.182232	-0.064404	1.157918	0.279163	-0.590329	-0.541411	-0.529579
04856						5.972601	6.568590	-3.415352	0.923303	-0.159260	1.293972	0.284558	-0.593420	-0.539784	-0.524892
04857						5.998757	5.097296	-2.771534	0.815018	-0.074057	1.375215	0.290347	-0.596151	-0.537931	-0.520512
04858						7.197942	3.194954	-1.797074	0.733558	-0.017909	1.430652	0.295881	-0.599427	-0.535128	-0.516506
04859						8.823997	1.802736	-1.775248	0.707657	-0.010774	1.482762	0.301763	-0.602360	-0.532510	-0.512382
04860						9.091106	0.382542	-2.136495	0.626427	0.077421	1.549044	0.307460	-0.605810	-0.528831	-0.508725
04861						9.024867	-0.682328	-2.137852	0.489866	0.187291	1.599653	0.313467	-0.608794	-0.524925	-0.505532
04862						8.682074	-1.464675	-1.468279	0.382886	0.248667	1.592510	0.318986	-0.612177	-0.520169	-0.502903
04863						8.288347	-1.492763	-1.020432	0.386680	0.352397	1.471940	0.324748	-0.614489	-0.516059	-0.500625
04864						7.796988	-0.886651	-0.819287	0.490505	0.551358	1.285901	0.330588	-0.616052	-0.511957	-0.499091
04865						7.289054	-0.037122	-0.944030	0.604929	0.637958	1.107568	0.336811	-0.616286	-0.508988	-0.497676
04866						7.094669	0.744619	-1.750668	0.690204	0.493579	1.020180	0.342419	-0.616920	-0.506238	-0.495865
04867						7.427996	1.289432	-2.748337	0.766349	0.251170	1.016767	0.347903	-0.617552	-0.504562	-0.492961
04868						7.940229	1.425238	-3.377904	0.946214	0.103447	1.033516	0.353316	-0.618685	-0.503024	-0.489247
04869						8.252098	1.290082	-3.505193	1.195113	0.129261	1.060053	0.359890	-0.618911	-0.502425	-0.484765
04870						8.463034	1.119715	-3.543076	1.453408	0.210753	1.082988	0.367499	-0.618672	-0.501878	-0.479904
04871						8.662414	1.241013	-3.767022	1.700225	0.260419	1.047390	0.375877	-0.617527	-0.502215	-0.474506
04872						8.625146	1.743735	-4.150064	1.865230	0.285014	0.962311	0.384590	-0.615913	-0.502797	-0.468975
04873						8.587293	2.386205	-4.564444	1.892714	0.269039	0.829514	0.392990	-0.613702	-0.504138	-0.463437
04874						8.524399	3.146886	-4.670086	1.825705	0.309498	0.681114	0.400910	-0.611262	-0.505351	-0.458531
04875						8.558440	3.859065	-4.485243	1.686529	0.348742	0.581537	0.408234	-0.608534	-0.506722	-0.454163
04876						8.311501	4.212105	-4.230211	1.467123	0.330693	0.530114	0.414707	-0.606280	-0.507473	-0.450460
04877						7.999275	4.155852	-3.795535	1.244839	0.320578	0.465973	0.420305	-0.604153	-0.508189	-0.447310
04878						7.617648	4.051957	-3.531573	1.031511	0.278826	0.387220	0.425007	-0.602451	-0.508523	-0.444777
04879						7.375838	3.920000	-4.077359	0.763983	0.176373	0.316889	0.428429	-0.601244	-0.508890	-0.442701
04880						7.330586	3.639552	-5.171578	0.395960	0.060465	0.241327	0.430322	-0.600981	-0.508717	-0.441420
04881						7.519968	3.427577	-5.978837	0.106752	0.019564	0.129878	0.430951	-0.601048	-0.508521	-0.440941
04882						7.448032	3.390078	-6.415095	0.020070	0.064686	-0.044005	0.431094	-0.600848	-0.508386	-0.441230
04883						7.457010	3.922428	-6.529082	0.169987	0.124992	-0.268660	0.431300	-0.599531	-0.509299	-0.441765
04884						8.640137	6.125822	-5.919715	0.728000	0.053524	-0.515975	0.432490	-0.596612	-0.512186	-0.441217
04885						9.378973	5.835425	-6.855922	0.784611	-0.194727	-0.806680	0.432517	-0.593278	-0.516738	-0.440378
04886						9.830637	5.413312	-4.645740	0.792990	-0.095771	-1.312499	0.431731	-0.588444	-0.522448	-0.440898
04887						10.743598	6.184227	-1.802729	0.764285	0.456216	-2.063691	0.430567	-0.580370	-0.529187	-0.444685
04888						12.112991	8.163166	1.213483	0.657522	0.767968	-2.637595	0.428605	-0.570283	-0.536487	-0.450839
04889						12.005185	6.795494	1.331118	-0.145752	0.701107	-2.873581	0.423518	-0.561254	-0.542790	-0.459353
04890						11.403389	2.602204	0.627161	-1.243821	0.586979	-2.995132	0.414678	-0.554410	-0.546904	-0.470710
04891						14.352554	-1.080267	-1.108188	-1.423010	0.288489	-3.252734	0.403774	-0.547708	-0.551886	-0.482084
04892						19.111788	-4.513145	-3.149490	-0.699908	0.004666	-3.216866	0.394050	-0.540240	-0.558797	-0.490520
04893						20.810132	-7.933148	-4.025602	0.115172	0.011171	-2.707839	0.387688	-0.532379	-0.566319	-0.495534
04894						18.001273	-8.510013	-3.741426	0.843852	0.329954	-2.177760	0.385441	-0.523815	-0.573394	-0.498269
04895						12.562027	-7.982620	-1.528557	1.193773	0.324111	-1.748602	0.385091	-0.515672	-0.580288	-0.499052
04896						11.947249	-4.628881	-2.104180	1.439982	-0.093180	-1.856952	0.383880	-0.507813	-0.588668	-0.498229
04897						12.785805	0.193493	-4.073451	1.451831	-0.568496	-2.326223	0.380034	-0.499554	-0.599221	-0.496944
04898						13.183030	3.793500	-4.220181	1.204391	-0.669146	-2.597391	0.374557	-0.491203	-0.609770	-0.496597
04899						11.690897	6.331971	-2.358298	0.821906	-0.590185	-2.546365	0.368392	-0.483327	-0.619109	-0.497380
04900						10.068791	7.501803	-0.582652	0.311544	-0.714899	-2.308781	0.361176	-0.477457	-0.626601	-0.498956
04901						9.176395	8.174881	0.145902	-0.213416	-0.851698	-2.155231	0.352571	-0.473190	-0.632706	-0.501467
04902						10.260355	6.182804	0.753173	-0.617383	-0.863060	-2.015588	0.343307	-0.470147	-0.637271	-0.504963
04903						11.669582	4.546062	0.788511	-1.014858	-0.805567	-2.037482	0.333159	-0.467403	-0.640830	-0.509780
04904						12.592651	2.465921	0.686975	-1.509458	-0.639832	-1.926350	0.322642	-0.465459	-0.642352	-0.516366
04905						12.184383	-0.020131	0.451396	-2.064499	-0.431716	-1.676160	0.312067	-0.464484	-0.641556	-0.524666
04906						10.610177	-1.830089	0.131063	-2.460610	-0.291348	-1.397577	0.301712	-0.464691	-0.638575	-0.534091
04907						9.311993	-3.227582	-0.128546	-2.504741	-0.244178	-1.231399	0.291769	-0.465150	-0.635047	-0.543343
04908						8.818442	-4.031365	-1.523906	-2.111740	-0.157748	-1.173213	0.283140	-0.465045	-0.632050	-0.551433
04909						7.836656	-4.577893	-1.917036	-1.351203	-0.390032	-1.059010	0.275808	-0.464674	-0.631307	-0.556290
04910						7.548207	-5.149955	-2.533187	-0.499946	-0.945802	-1.000455	0.268871	-0.464978	-0.633352	-0.557108
04911						7.926774	-5.605343	-2.539997	0.291266	-0.982853	-0.955877	0.263740	-0.464291	-0.637684	-0.555188
04912						7.980026	-5.102567	-1.550323	0.959468	-1.170868	-0.704885	0.260280	-0.464176	-0.643329	-0.550384
04913						7.742450	-3.678429	-0.883192	1.259109	-1.399662	-0.342037	0.257721	-0.465272	-0.649373	-0.543522
04914						8.475134	-1.672307	0.447431	1.032398	-1.202371	0.017533	0.256282	-0.467423	-0.653486	-0.537393
04915						9.419714	0.232550	2.384192	0.209331	-0.476936	0.416665	0.256305	-0.469800	-0.653675	-0.535075
04916						8.533759	1.881444	4.285414	-0.646247	0.106924	0.621029	0.256818	-0.472550	-0.650146	-0.536704
04917						7.340726	2.873310	4.674149	-1.418640	0.436025	0.656445	0.256611	-0.475324	-0.644199	-0.541502
04918						5.771776	3.573578	1.704040	-1.515181	0.645336	0.476338	0.256380	-0.477234	-0.637890	-0.547370
04919						5.342075	4.211044	-2.216850	-0.558766	0.335942	0.310789	0.256941	-0.478024	-0.635176	-0.549568
04920						5.546957	5.118473	-4.345481	0.713684	0.063626	0.111504	0.259161	-0.477480	-0.636558	-0.547396
04921						7.280481	6.084218	-4.682776	1.292295	-0.071615	-0.040855	0.261875	-0.475867	-0.640264	-0.543171
04922						9.313788	6.116786	-6.886079	1.247463	-0.138983	-0.005123	0.264392	-0.474772	-0.643619	-0.538927
04923						8.787493	4.672695	-9.762668	1.240110	-0.134668	0.189556	0.267382	-0.474102	-0.646668	-0.534373
04924						7.828764	1.737970	-8.470133	0.806941	-0.170366	0.383673	0.269789	-0.474887	-0.647943	-0.530911
04925						7.899389	1.430381	-6.032325	0.061151	-0.518602	0.449507	0.269420	-0.477640	-0.647726	-0.528889
04926						8.202195	3.201570	-4.472476	-0.375801	-0.885552	0.489102	0.266977	-0.482230	-0.646570	-0.527375
04927						8.551452	4.916700	-2.939276	-0.448571	-1.083433	0.562595	0.263844	-0.487500	-0.645456	-0.525469
04928						8.787028	5.820141	-1.943818	-0.278307	-1.121270	0.660849	0.261313	-0.493096	-0.644405	-0.522795
04929						8.849708	5.525758	-1.104397	-0.093951	-0.909400	0.751419	0.260085	-0.498014	-0.643476	-0.519881
04930						9.189517	4.552155	-0.474313	0.050492	-0.492462	0.834807	0.260825	-0.502069	-0.641984	-0.517450
04931						8.157711	2.907972	0.352902	0.068987	-0.073238	0.815451	0.262845	-0.504787	-0.640198	-0.515994
04932						7.468758	1.451374	0.969877	-0.173825	0.149607	0.756729	0.264864	-0.507212	-0.637449	-0.515986
04933						7.523335	0.826662	1.375022	-0.541645	0.137654	0.696581	0.265697	-0.509795	-0.634089	-0.517151
04934						12.017272	0.843218	3.819400	-0.962161	-0.063780	0.704591	0.264885	-0.513634	-0.629675	-0.519158
04935						25.240080	1.443327	-3.694180	-1.210810	-1.114689	0.852992	0.260442	-0.520801	-0.625783	-0.518972
04936						19.493108	0.743890	-9.097266	0.076496	-0.120024	1.317499	0.263703	-0.525310	-0.622462	-0.516770
04937						11.447963	2.178922	-1.445126	0.498618	1.168258	1.393617	0.272212	-0.525955	-0.618514	-0.516443
04938						12.036084	5.746318	0.393745	-0.173055	0.601167	1.398981	0.277248	-0.529136	-0.613315	-0.516714
04939						13.804197	7.051929	-6.204512	-1.002613	-0.319458	1.459587	0.277350	-0.535813	-0.607273	-0.516916
04940						12.836061	8.348548	-7.722804	-1.435485	-0.823345	1.980530	0.276124	-0.546084	-0.599105	-0.516353
04941						4.026404	6.440740	2.727758	-2.664525	0.447396	0.708974	0.271966	-0.550685	-0.589606	-0.524543
04942						3.023465	5.145024	4.641021	-3.037706	0.427978	-0.282584	0.264105	-0.552974	-0.581524	-0.535069
04943						5.172565	1.815558	1.846254	-2.076405	-0.276344	-0.382164	0.256496	-0.555319	-0.577348	-0.540832
04944						9.247396	0.613640	-1.675987	-1.359753	-0.704202	-0.077181	0.250477	-0.558911	-0.574517	-0.542964
04945						13.344652	-2.121813	-6.512129	-0.597516	-0.463629	0.121017	0.247775	-0.561269	-0.573124	-0.543244
04946						15.177463	-6.852496	-6.881049	0.301003	-0.145652	0.510176	0.249597	-0.562937	-0.572430	-0.541412
04947						11.005243	-9.981498	-2.826452	0.381675	0.570753	1.205572	0.255536	-0.564360	-0.569335	-0.540423
04948						6.716034	-10.538920	-0.980296	0.801956	0.411553	1.636213	0.263403	-0.567052	-0.566064	-0.537255
04949						5.401968	-8.591844	-1.120624	1.703707	-0.098108	1.585387	0.272170	-0.569528	-0.566227	-0.530046
04950						7.834006	-6.365541	-1.398371	2.108786	-0.098756	1.312431	0.281387	-0.570796	-0.567884	-0.522035
04951						10.566804	-2.643198	-2.281357	1.962179	0.162851	0.839121	0.289597	-0.569969	-0.570340	-0.515734
04952						13.898855	1.568913	-4.059806	1.686990	0.246656	0.574899	0.296622	-0.568716	-0.572376	-0.510845
04953						15.815676	6.089776	-6.434237	1.692011	0.336506	0.683711	0.304104	-0.567289	-0.574221	-0.505939
04954						6.821845	7.537911	-2.855216	1.383630	1.005241	0.068303	0.311122	-0.563022	-0.575687	-0.504771
04955						5.197543	7.712964	-1.759165	0.648402	0.618102	-0.083013	0.314488	-0.560218	-0.576581	-0.504784
04956						5.223188	7.719887	-2.372484	-0.078897	-0.016080	0.169390	0.314688	-0.561067	-0.575650	-0.504779
04957						5.947583	7.064759	-3.363080	-0.590272	-0.101906	0.431078	0.313799	-0.563500	-0.573098	-0.505526
04958						7.149375	5.207200	-4.023260	-0.786500	-0.081027	0.588795	0.312870	-0.566805	-0.569300	-0.506697
04959						8.582727	3.135804	-4.165105	-0.826396	-0.149617	0.631030	0.311670	-0.570275	-0.565635	-0.507647
04960						9.716354	1.408052	-3.652596	-0.882652	-0.152084	0.581963	0.310229	-0.573853	-0.561702	-0.508863
04961						10.018577	0.459296	-3.461986	-0.919916	-0.163983	0.484065	0.308331	-0.577058	-0.558209	-0.510234
04962						9.616382	-0.553930	-3.432872	-0.914160	-0.146021	0.405022	0.306349	-0.580140	-0.554665	-0.511795
04963						9.515147	-1.202856	-3.665287	-0.856391	-0.142530	0.353003	0.304343	-0.582799	-0.551652	-0.513225
04964						9.475649	-1.308894	-3.741061	-0.736195	-0.053194	0.264370	0.302763	-0.584959	-0.548808	-0.514749
04965						9.457886	-0.997073	-3.382401	-0.626117	0.049824	0.165404	0.301467	-0.586239	-0.546624	-0.516375
04966						9.680823	-0.747617	-2.883135	-0.557490	0.063511	0.141163	0.300407	-0.587479	-0.544412	-0.517918
04967						10.114701	-0.403792	-2.409027	-0.480415	0.040089	0.184548	0.299556	-0.588607	-0.542553	-0.519080
04968						10.258724	-0.224141	-2.442864	-0.357190	0.045820	0.264448	0.299354	-0.589920	-0.540514	-0.519832
04969						10.170427	-0.143356	-2.725664	-0.201481	0.041904	0.366543	0.299799	-0.591112	-0.538834	-0.519966
04970						10.053854	-0.076944	-2.868240	-0.021258	0.053249	0.456558	0.301106	-0.592417	-0.537081	-0.519539
04971						9.798562	0.186941	-2.740109	0.108719	0.092977	0.504070	0.302960	-0.593374	-0.535717	-0.518777
04972						9.546379	0.523782	-2.510939	0.189988	0.119686	0.505202	0.305195	-0.594308	-0.534259	-0.517900
04973						9.360557	0.887155	-2.693078	0.256454	0.119606	0.481949	0.307498	-0.594903	-0.533295	-0.516848
04974						9.160067	1.198501	-3.023717	0.320768	0.116454	0.430668	0.309917	-0.595436	-0.532393	-0.515718
04975						9.072282	1.385625	-3.076372	0.346435	0.124903	0.362605	0.312189	-0.595551	-0.531999	-0.514619
04976						8.955617	1.583226	-2.913506	0.289282	0.129902	0.287555	0.314179	-0.595707	-0.531417	-0.513829
04977						8.884471	1.720351	-2.788096	0.171336	0.106333	0.240749	0.315564	-0.595815	-0.530961	-0.513327
04978						8.993939	1.903251	-2.804566	0.021779	0.067884	0.222496	0.316424	-0.596373	-0.529982	-0.513161
04979						9.123201	2.039446	-2.928099	-0.106796	0.034548	0.230191	0.316762	-0.597074	-0.528955	-0.513197
04980						9.106945	2.161780	-3.103593	-0.272122	0.022212	0.267440	0.316737	-0.598328	-0.527161	-0.513597
04981						9.088366	2.168512	-3.087444	-0.456761	0.002877	0.323264	0.316182	-0.599905	-0.525003	-0.514311
04982						8.930125	1.846527	-2.953607	-0.590001	-0.011112	0.371549	0.315378	-0.602008	-0.522129	-0.515271
04983						8.906632	1.395451	-2.373018	-0.637594	-0.018604	0.397961	0.314408	-0.604108	-0.519301	-0.516263
04984						8.987443	0.847047	-1.883973	-0.634639	-0.055101	0.394558	0.313406	-0.606436	-0.516300	-0.517153
04985						9.050054	0.241420	-2.068730	-0.622002	-0.087101	0.360954	0.312201	-0.608575	-0.513717	-0.517940
04986						9.199726	-0.253475	-2.424793	-0.587868	-0.090900	0.307134	0.311012	-0.610682	-0.511143	-0.518722
04987						9.404421	-0.590260	-2.809056	-0.493076	-0.094413	0.247708	0.309881	-0.612336	-0.509240	-0.519321
04988						9.660567	-0.676469	-2.984844	-0.385575	-0.086331	0.201478	0.309044	-0.613837	-0.507497	-0.519752
04989						9.854278	-0.765012	-3.267654	-0.269727	-0.073511	0.180135	0.308472	-0.614913	-0.506343	-0.519946
04990						9.874699	-0.775892	-3.205310	-0.141152	-0.036235	0.183024	0.308465	-0.615857	-0.505211	-0.519934
04991						9.653305	-0.858089	-3.106067	-0.001805	0.016552	0.210474	0.309022	-0.616360	-0.504519	-0.519679
04992						9.515041	-0.915446	-3.057211	0.132366	0.016496	0.234195	0.310125	-0.616872	-0.503858	-0.519056
04993						9.618070	-0.766045	-3.091362	0.226706	-0.003616	0.254587	0.311450	-0.617182	-0.503652	-0.518093
04994						9.709752	-0.547523	-3.147787	0.299295	0.013835	0.246971	0.313094	-0.617471	-0.503385	-0.517016
04995						9.769871	-0.260536	-3.061715	0.345983	0.069791	0.230555	0.314908	-0.617340	-0.503443	-0.516013
04996						9.793746	0.048977	-2.856167	0.347237	0.120003	0.217201	0.316890	-0.617198	-0.503221	-0.515185
04997						9.734935	0.356417	-2.671316	0.319003	0.157404	0.220679	0.318813	-0.616854	-0.503097	-0.514532
04998						9.650894	0.590454	-2.346630	0.263976	0.180014	0.240552	0.320747	-0.616742	-0.502490	-0.514057
04999						9.590551	0.655892	-2.129742	0.187294	0.183649	0.262865	0.322436	-0.616642	-0.501851	-0.513745
05000						9.511077	0.623298	-1.982457	0.125176	0.173508	0.279531	0.324024	-0.616862	-0.500772	-0.513534
05001						9.533272	0.546561	-1.920991	0.049161	0.151133	0.288614	0.325270	-0.617129	-0.499748	-0.513423
05002						9.569264	0.495536	-1.891710	-0.003796	0.136913	0.286248	0.326383	-0.617665	-0.498373	-0.513409
05003						9.673027	0.472551	-1.809003	-0.060679	0.124895	0.284461	0.327212	-0.618164	-0.497120	-0.513495
05004						9.689609	0.544795	-1.904980	-0.130213	0.120383	0.279149	0.327872	-0.618927	-0.495464	-0.513756
05005						9.660269	0.641812	-2.063050	-0.207896	0.112577	0.280558	0.328203	-0.619686	-0.493861	-0.514172
05006						9.594342	0.691178	-2.181746	-0.282411	0.126737	0.283543	0.328415	-0.620687	-0.491786	-0.514818
05007						9.452001	0.716353	-2.222078	-0.332961	0.143430	0.282730	0.328437	-0.621572	-0.489799	-0.515630
05008						9.336324	0.598011	-2.270277	-0.337362	0.139956	0.269205	0.328469	-0.622586	-0.487600	-0.516469
05009						9.368103	0.411081	-2.342787	-0.301620	0.117276	0.258099	0.328457	-0.623420	-0.485809	-0.517158
05010						9.446572	0.202003	-2.510917	-0.250668	0.093652	0.247890	0.328588	-0.624354	-0.483972	-0.517671
05011						9.493685	-0.056731	-2.699108	-0.175941	0.065775	0.249259	0.328818	-0.625088	-0.482614	-0.517906
05012						9.490443	-0.196648	-2.795417	-0.084491	0.066457	0.235150	0.329368	-0.625784	-0.481291	-0.517949
05013						9.450227	-0.220837	-2.596204	0.023518	0.080298	0.216445	0.330171	-0.626071	-0.480526	-0.517800
05014						9.464372	-0.318336	-2.388122	0.134512	0.091943	0.186395	0.331340	-0.626219	-0.479880	-0.517474
05015						9.489250	-0.338264	-2.386369	0.214915	0.086997	0.151129	0.332588	-0.626014	-0.479802	-0.516993
05016						9.540587	-0.379200	-2.546200	0.293869	0.091751	0.115097	0.334071	-0.625724	-0.479789	-0.516400
05017						9.556947	-0.251189	-2.487375	0.372145	0.110507	0.086910	0.335700	-0.625039	-0.480276	-0.515720
05018						9.571924	0.023976	-2.350394	0.415421	0.114856	0.069451	0.337499	-0.624370	-0.480678	-0.514980
05019						9.594243	0.325503	-2.192084	0.411064	0.115815	0.058106	0.339186	-0.623531	-0.481342	-0.514268
05020						9.649024	0.531419	-2.096372	0.373574	0.124410	0.057191	0.340843	-0.622873	-0.481656	-0.513676
05021						9.623638	0.664309	-2.179760	0.323690	0.141790	0.060252	0.342323	-0.622116	-0.482040	-0.513248
05022						9.524728	0.627985	-2.084762	0.283761	0.160324	0.069398	0.343817	-0.621543	-0.482021	-0.512962
05023						9.510083	0.616830	-1.963285	0.248424	0.165805	0.077878	0.345164	-0.620892	-0.482114	-0.512758
05024						9.536771	0.506724	-1.955333	0.199153	0.147381	0.088536	0.346411	-0.620540	-0.481840	-0.512601
05025						9.546541	0.397564	-1.918061	0.167564	0.128862	0.085677	0.347437	-0.620141	-0.481763	-0.512462
05026						9.487890	0.264399	-1.937831	0.135786	0.111436	0.079559	0.348376	-0.619966	-0.481415	-0.512363
05027						9.468876	0.204610	-1.998214	0.098610	0.082098	0.077598	0.349055	-0.619786	-0.481267	-0.512258
05028						9.536328	0.193307	-2.113150	0.054589	0.056024	0.068964	0.349581	-0.619867	-0.480841	-0.512200
05029						9.556671	0.183821	-2.215913	0.023981	0.044116	0.063697	0.349902	-0.619881	-0.480610	-0.512182
05030						9.544111	0.201166	-2.259109	0.010062	0.043036	0.058087	0.350231	-0.620046	-0.480128	-0.512210
05031						9.571713	0.242439	-2.340112	0.005204	0.041943	0.055528	0.350466	-0.620078	-0.479878	-0.512244
05032						9.519034	0.237193	-2.346025	0.006660	0.036490	0.056462	0.350765	-0.620261	-0.479404	-0.512261
05033						9.468894	0.205863	-2.428737	0.023883	0.039620	0.052864	0.351046	-0.620260	-0.479214	-0.512248
05034						9.476312	0.127614	-2.399355	0.040270	0.054709	0.046000	0.351466	-0.620311	-0.478829	-0.512258
05035						9.501508	0.052556	-2.221804	0.056861	0.054552	0.041443	0.351856	-0.620187	-0.478732	-0.512232
05036						9.567459	0.074356	-2.083558	0.066205	0.052223	0.033590	0.352318	-0.620167	-0.478457	-0.512194
05037						9.584819	0.044867	-2.108734	0.074318	0.043338	0.023806	0.352691	-0.619998	-0.478479	-0.512122
05038						9.574953	-0.054786	-2.048298	0.101229	0.049519	0.009001	0.353192	-0.619864	-0.478376	-0.512035
05039						9.579147	-0.059360	-2.119849	0.144426	0.065360	-0.007139	0.353755	-0.619441	-0.478634	-0.511918
05040						9.610538	-0.085563	-2.096096	0.191395	0.066936	-0.026906	0.354485	-0.619016	-0.478842	-0.511732
05041						9.633063	-0.011917	-2.021224	0.224624	0.067646	-0.034891	0.355230	-0.618377	-0.479386	-0.511479
05042						9.643900	-0.063613	-2.066710	0.241206	0.069598	-0.039440	0.356088	-0.617825	-0.479755	-0.511204
05043						9.668593	-0.071139	-2.244006	0.249627	0.073796	-0.042869	0.356903	-0.617104	-0.480375	-0.510923
05044						9.677066	-0.078390	-2.390015	0.264608	0.091068	-0.043083	0.357875	-0.616444	-0.480776	-0.510663
05045						9.629675	-0.003908	-2.293077	0.287232	0.097482	-0.037648	0.358876	-0.615607	-0.481432	-0.510353
05046						9.552266	0.118220	-2.215708	0.291168	0.086742	-0.024908	0.359964	-0.614950	-0.481852	-0.509981
05047						9.551739	0.263684	-2.137899	0.268857	0.072912	-0.013882	0.360908	-0.614263	-0.482430	-0.509596
05048						9.504234	0.402150	-2.226543	0.226135	0.055841	-0.009748	0.361760	-0.613835	-0.482693	-0.509257
05049						9.499602	0.494639	-2.250446	0.179659	0.053068	-0.002156	0.362412	-0.613387	-0.483042	-0.509004
05050						9.495197	0.611593	-2.275903	0.131785	0.051504	0.008858	0.363010	-0.613184	-0.483018	-0.508845
05051						9.516739	0.660407	-2.203479	0.079889	0.057438	0.012599	0.363404	-0.612940	-0.483059	-0.508819
05052						9.508370	0.733235	-2.149090	0.027643	0.048479	0.029824	0.363729	-0.612983	-0.482713	-0.508863
05053						9.526083	0.679299	-2.172286	-0.031104	0.041674	0.043517	0.363823	-0.613055	-0.482405	-0.509001
05054						9.543396	0.576486	-2.192595	-0.077391	0.048911	0.056221	0.363893	-0.613350	-0.481713	-0.509251
05055						9.574133	0.499656	-2.166869	-0.103241	0.046296	0.073989	0.363855	-0.613615	-0.481119	-0.509521
05056						9.533917	0.399193	-2.120680	-0.132083	0.041426	0.087857	0.363819	-0.614102	-0.480205	-0.509821
05057						9.563385	0.247868	-2.092401	-0.145636	0.036105	0.088745	0.363663	-0.614505	-0.479476	-0.510133
05058						9.546738	0.195491	-2.056294	-0.146324	0.035993	0.084486	0.363560	-0.615022	-0.478547	-0.510455
05059						9.540782	0.165587	-2.074884	-0.145425	0.037899	0.073430	0.363369	-0.615383	-0.477860	-0.510799
05060						9.571005	0.113547	-2.051963	-0.132254	0.036413	0.061869	0.363252	-0.615817	-0.477037	-0.511128
05061						9.607147	0.038642	-2.005282	-0.116086	0.024055	0.052305	0.363064	-0.616109	-0.476515	-0.511398
05062						9.604297	-0.016726	-2.101776	-0.101092	0.017184	0.043873	0.362951	-0.616491	-0.475862	-0.511625
05063						9.625715	-0.023012	-2.206988	-0.091394	0.021190	0.031589	0.362779	-0.616696	-0.475472	-0.511864
05064						9.626279	-0.023882	-2.204516	-0.065556	0.030535	0.022464	0.362752	-0.616928	-0.474953	-0.512085
05065						9.553611	0.053299	-2.107555	-0.032325	0.039948	0.021057	0.362780	-0.616952	-0.474712	-0.512260
05066						9.534424	0.129637	-2.000184	-0.025748	0.026794	0.020411	0.362861	-0.617116	-0.474309	-0.512378
05067						9.556738	0.172520	-2.107497	-0.026656	0.006101	0.019824	0.362823	-0.617213	-0.474148	-0.512437
05068						9.541602	0.166183	-2.254209	-0.037341	0.011549	0.013544	0.362814	-0.617420	-0.473766	-0.512547
