// Start Time: Unknown
// Update Rate: 40.0Hz
// Filter Profile: human (46.1)
// Option Flags: AHS Disabled ICC Disabled 
// Firmware Version: 4.0.2
PacketCounter	SampleTimeFine	Mat[1][1]	Mat[2][1]	Mat[3][1]	Mat[1][2]	Mat[2][2]	Mat[3][2]	Mat[1][3]	Mat[2][3]	Mat[3][3]
35166		-0.099890	-0.036878	-0.994315	-0.989826	0.105442	0.095529	0.101319	0.993741	-0.047036
35167		-0.100158	-0.036877	-0.994288	-0.989685	0.106570	0.095742	0.102430	0.993621	-0.047171
35168		-0.100505	-0.036686	-0.994260	-0.989530	0.107721	0.096052	0.103579	0.993504	-0.047128
35170		-0.100995	-0.035865	-0.994240	-0.989290	0.109471	0.096543	0.105378	0.993343	-0.046537
35171		-0.101100	-0.035524	-0.994242	-0.989337	0.108905	0.096710	0.104843	0.993417	-0.046156
35172		-0.100950	-0.035082	-0.994273	-0.989395	0.108444	0.096628	0.104433	0.993483	-0.045657
35173		-0.100662	-0.034666	-0.994317	-0.989435	0.108292	0.096393	0.104335	0.993515	-0.045201
35174		-0.100299	-0.034276	-0.994367	-0.989580	0.107205	0.096120	0.103306	0.993646	-0.044672
35175		-0.099882	-0.034136	-0.994414	-0.989693	0.106486	0.095752	0.102623	0.993728	-0.044420
35177		-0.099167	-0.034107	-0.994486	-0.989940	0.104743	0.095122	0.100922	0.993914	-0.044151
35178		-0.098958	-0.034196	-0.994504	-0.990090	0.103464	0.094961	0.099648	0.994045	-0.044096
35179		-0.098841	-0.034171	-0.994516	-0.990169	0.102781	0.094878	0.098975	0.994117	-0.043994
35181		-0.098793	-0.034071	-0.994525	-0.990280	0.101700	0.094888	0.097910	0.994232	-0.043787
35182		-0.098772	-0.033966	-0.994530	-0.990296	0.101548	0.094883	0.097769	0.994251	-0.043667
35183		-0.098633	-0.033929	-0.994545	-0.990334	0.101289	0.094760	0.097522	0.994278	-0.043591
35184		-0.098482	-0.033884	-0.994562	-0.990330	0.101469	0.094606	0.097712	0.994261	-0.043549
35185		-0.098435	-0.033799	-0.994569	-0.990329	0.101523	0.094565	0.097775	0.994259	-0.043466
35186		-0.098436	-0.033642	-0.994575	-0.990259	0.102213	0.094551	0.098478	0.994193	-0.043376
35187		-0.098469	-0.033608	-0.994572	-0.990196	0.102807	0.094562	0.099071	0.994133	-0.043402
35188		-0.098580	-0.033571	-0.994563	-0.990147	0.103193	0.094659	0.099454	0.994095	-0.043413
35189		-0.098686	-0.033513	-0.994554	-0.990001	0.104537	0.094712	0.100793	0.993956	-0.043494
35190		-0.098762	-0.033413	-0.994550	-0.989926	0.105191	0.094768	0.101452	0.993891	-0.043466
35191		-0.098879	-0.033384	-0.994539	-0.989867	0.105658	0.094868	0.101914	0.993842	-0.043493
35192		-0.099035	-0.033420	-0.994523	-0.989811	0.106061	0.095001	0.102305	0.993798	-0.043584
35193		-0.099121	-0.033597	-0.994508	-0.989767	0.106425	0.095054	0.102647	0.993753	-0.043802
35194		-0.099234	-0.033871	-0.994487	-0.989711	0.106884	0.095117	0.103073	0.993694	-0.044129
35195		-0.099316	-0.034151	-0.994470	-0.989661	0.107318	0.095151	0.103475	0.993638	-0.044456
35196		-0.099352	-0.034372	-0.994459	-0.989602	0.107869	0.095138	0.104001	0.993571	-0.044731
35197		-0.099301	-0.034591	-0.994456	-0.989559	0.108352	0.095043	0.104464	0.993511	-0.044989
35198		-0.099305	-0.034813	-0.994448	-0.989567	0.108296	0.095026	0.104387	0.993509	-0.045204
35199		-0.099344	-0.035066	-0.994435	-0.989581	0.108146	0.095045	0.104212	0.993516	-0.045444
35200		-0.099390	-0.035266	-0.994423	-0.989626	0.107692	0.095091	0.103738	0.993559	-0.045603
35201		-0.099425	-0.035415	-0.994415	-0.989659	0.107364	0.095126	0.103395	0.993589	-0.045724
35202		-0.099454	-0.035500	-0.994409	-0.989605	0.107858	0.095123	0.103878	0.993532	-0.045858
35203		-0.099599	-0.035580	-0.994391	-0.989574	0.108030	0.095251	0.104035	0.993511	-0.045968
35204		-0.099958	-0.035384	-0.994362	-0.989519	0.108208	0.095621	0.104215	0.993498	-0.045830
35205		-0.100354	-0.035102	-0.994332	-0.989390	0.109044	0.096006	0.105057	0.993417	-0.045672
35206		-0.100759	-0.034883	-0.994299	-0.989268	0.109805	0.096397	0.105816	0.993341	-0.045572
35207		-0.101057	-0.034783	-0.994272	-0.989182	0.110330	0.096680	0.106335	0.993286	-0.045557
35208		-0.101342	-0.034686	-0.994247	-0.989118	0.110658	0.096958	0.106659	0.993253	-0.045523
35209		-0.101453	-0.034716	-0.994234	-0.989118	0.110561	0.097070	0.106554	0.993263	-0.045555
35210		-0.101422	-0.034731	-0.994237	-0.989109	0.110671	0.097033	0.106663	0.993250	-0.045578
35211		-0.101416	-0.034759	-0.994237	-0.989111	0.110659	0.097024	0.106649	0.993250	-0.045603
35213		-0.101218	-0.034556	-0.994264	-0.989125	0.110688	0.096848	0.106706	0.993254	-0.045384
35214		-0.101144	-0.034471	-0.994274	-0.989164	0.110387	0.096797	0.106418	0.993291	-0.045263
35216		-0.100812	-0.034396	-0.994311	-0.989153	0.110785	0.096457	0.106837	0.993249	-0.045192
35217		-0.100696	-0.034410	-0.994322	-0.989149	0.110922	0.096334	0.106978	0.993233	-0.045206
35218		-0.100594	-0.034489	-0.994330	-0.989216	0.110402	0.096247	0.106457	0.993288	-0.045223
35219		-0.100505	-0.034461	-0.994340	-0.989208	0.110552	0.096155	0.106612	0.993273	-0.045200
35220		-0.100453	-0.034482	-0.994344	-0.989203	0.110648	0.096097	0.106709	0.993261	-0.045225
35221		-0.100359	-0.034458	-0.994354	-0.989188	0.110868	0.095995	0.106935	0.993238	-0.045212
35222		-0.100208	-0.034417	-0.994371	-0.989180	0.111074	0.095841	0.107151	0.993216	-0.045175
35223		-0.100171	-0.034404	-0.994375	-0.989184	0.111071	0.095805	0.107150	0.993217	-0.045158
35224		-0.100190	-0.034373	-0.994374	-0.989179	0.111093	0.095826	0.107174	0.993215	-0.045132
35225		-0.100239	-0.034337	-0.994371	-0.989108	0.111704	0.095851	0.107784	0.993148	-0.045161
35226		-0.100299	-0.034217	-0.994369	-0.989007	0.112564	0.095884	0.108649	0.993055	-0.045131
35227		-0.100459	-0.034097	-0.994357	-0.988903	0.113366	0.096021	0.109452	0.992968	-0.045107
35228		-0.100589	-0.033685	-0.994358	-0.988837	0.113809	0.096175	0.109927	0.992931	-0.044757
35229		-0.100737	-0.033457	-0.994350	-0.988816	0.113846	0.096346	0.109979	0.992935	-0.044551
35230		-0.100929	-0.033392	-0.994333	-0.988808	0.113738	0.096548	0.109869	0.992949	-0.044497
35231		-0.101171	-0.033249	-0.994313	-0.988754	0.114002	0.096794	0.110136	0.992924	-0.044408
35232		-0.101431	-0.033161	-0.994290	-0.988688	0.114362	0.097046	0.110491	0.992885	-0.044386
35233		-0.101614	-0.033130	-0.994272	-0.988645	0.114581	0.097221	0.110703	0.992861	-0.044397
35234		-0.101822	-0.033166	-0.994250	-0.988657	0.114298	0.097436	0.110409	0.992893	-0.044427
35235		-0.101879	-0.033181	-0.994243	-0.988649	0.114317	0.097491	0.110425	0.992890	-0.044451
35236		-0.101896	-0.033135	-0.994243	-0.988644	0.114348	0.097512	0.110458	0.992888	-0.044410
35237		-0.101884	-0.033075	-0.994246	-0.988638	0.114401	0.097504	0.110518	0.992884	-0.044355
35238		-0.101826	-0.033074	-0.994252	-0.988633	0.114501	0.097441	0.110621	0.992872	-0.044357
35239		-0.101742	-0.033068	-0.994261	-0.988621	0.114679	0.097351	0.110801	0.992852	-0.044360
35240		-0.101700	-0.033095	-0.994265	-0.988627	0.114666	0.097306	0.110788	0.992853	-0.044380
35241		-0.101609	-0.033039	-0.994276	-0.988621	0.114793	0.097217	0.110924	0.992840	-0.044327
35242		-0.101557	-0.032865	-0.994287	-0.988541	0.115538	0.097152	0.111685	0.992759	-0.044222
35243		-0.101774	-0.032711	-0.994270	-0.988460	0.116053	0.097361	0.112204	0.992704	-0.044145
35244		-0.102055	-0.032567	-0.994246	-0.988336	0.116884	0.097620	0.113032	0.992611	-0.044116
35245		-0.102412	-0.032325	-0.994217	-0.988211	0.117644	0.097969	0.113797	0.992530	-0.043992
35246		-0.102764	-0.032039	-0.994190	-0.987988	0.119253	0.098280	0.115411	0.992347	-0.043909
35247		-0.103152	-0.031891	-0.994154	-0.987802	0.120496	0.098627	0.116646	0.992201	-0.043931
35248		-0.103500	-0.031803	-0.994121	-0.987708	0.120998	0.098961	0.117139	0.992143	-0.043935
35249		-0.103651	-0.031755	-0.994107	-0.987686	0.121052	0.099115	0.117191	0.992138	-0.043912
35250		-0.103694	-0.031794	-0.994101	-0.987737	0.120581	0.099174	0.116717	0.992194	-0.043907
35251		-0.103612	-0.031797	-0.994109	-0.987764	0.120427	0.099098	0.116567	0.992213	-0.043886
35252		-0.103526	-0.031777	-0.994119	-0.987832	0.119910	0.099038	0.116058	0.992276	-0.043804
35253		-0.103376	-0.031839	-0.994133	-0.987947	0.119061	0.098920	0.115213	0.992376	-0.043764
35254		-0.103143	-0.031836	-0.994157	-0.988028	0.118558	0.098711	0.114722	0.992437	-0.043683
35255		-0.102886	-0.031787	-0.994185	-0.988070	0.118412	0.098468	0.114593	0.992456	-0.043591
35256		-0.102834	-0.031817	-0.994190	-0.988194	0.117383	0.098457	0.113568	0.992577	-0.043512
35257		-0.102739	-0.031850	-0.994198	-0.988310	0.116453	0.098400	0.112643	0.992685	-0.043442
35258		-0.102679	-0.032070	-0.994197	-0.988412	0.115620	0.098352	0.111795	0.992776	-0.043570
35259		-0.102782	-0.032131	-0.994185	-0.988325	0.116309	0.098417	0.112470	0.992693	-0.043710
35260		-0.102994	-0.032264	-0.994159	-0.988223	0.117032	0.098581	0.113168	0.992604	-0.043937
35261		-0.103115	-0.032410	-0.994141	-0.988220	0.116974	0.098687	0.113090	0.992606	-0.044090
35262		-0.103295	-0.032487	-0.994120	-0.988211	0.116900	0.098861	0.113001	0.992612	-0.044179
35263		-0.103435	-0.032598	-0.994102	-0.988170	0.117147	0.098977	0.113230	0.992579	-0.044330
35264		-0.103602	-0.032665	-0.994082	-0.988117	0.117475	0.099120	0.113543	0.992538	-0.044447
35266		-0.103879	-0.032981	-0.994043	-0.988151	0.116967	0.099383	0.112993	0.992588	-0.044741
35267		-0.104145	-0.033054	-0.994013	-0.988094	0.117234	0.099627	0.113239	0.992554	-0.044869
35268		-0.104416	-0.033174	-0.993980	-0.988047	0.117424	0.099874	0.113404	0.992528	-0.045038
35269		-0.104721	-0.033128	-0.993950	-0.988038	0.117225	0.100191	0.113197	0.992553	-0.045008
35271		-0.105258	-0.033014	-0.993897	-0.987979	0.117262	0.100736	0.113221	0.992552	-0.044960
35272		-0.105599	-0.032949	-0.993863	-0.987971	0.117020	0.101094	0.112971	0.992583	-0.044910
35273		-0.105818	-0.032941	-0.993840	-0.987998	0.116589	0.101331	0.112533	0.992634	-0.044883
35274		-0.105805	-0.032999	-0.993839	-0.988060	0.116052	0.101336	0.111993	0.992695	-0.044884
35276		-0.105210	-0.032995	-0.993902	-0.988209	0.115266	0.100781	0.111238	0.992786	-0.044733
35277		-0.105086	-0.033132	-0.993911	-0.988276	0.114796	0.100663	0.110761	0.992836	-0.044807
35278		-0.105115	-0.032917	-0.993915	-0.988077	0.116512	0.100639	0.112490	0.992644	-0.044772
35279		-0.105314	-0.032822	-0.993897	-0.987865	0.118182	0.100772	0.114153	0.992449	-0.044870
35281		-0.106285	-0.032677	-0.993799	-0.987339	0.121829	0.101589	0.117754	0.992013	-0.045211
35282		-0.106915	-0.032347	-0.993742	-0.986957	0.124438	0.102135	0.120355	0.991700	-0.045229
35283		-0.107632	-0.031975	-0.993677	-0.986589	0.126801	0.102784	0.122712	0.991413	-0.045194
35284		-0.108206	-0.031690	-0.993623	-0.986370	0.128046	0.103333	0.123955	0.991262	-0.045113
35285		-0.108749	-0.031546	-0.993569	-0.986253	0.128514	0.103868	0.124411	0.991206	-0.045088
35286		-0.109275	-0.031431	-0.993514	-0.986203	0.128464	0.104407	0.124349	0.991216	-0.045036
35287		-0.109892	-0.031337	-0.993449	-0.986106	0.128705	0.105020	0.124571	0.991188	-0.045046
35288		-0.110608	-0.031254	-0.993373	-0.986013	0.128835	0.105735	0.124676	0.991173	-0.045067
35289		-0.111408	-0.031239	-0.993284	-0.985908	0.128989	0.106524	0.124795	0.991154	-0.045169
35291		-0.113400	-0.030849	-0.993070	-0.985587	0.129783	0.108514	0.125536	0.991062	-0.045122
35292		-0.114624	-0.030576	-0.992938	-0.985490	0.129451	0.109778	0.125180	0.991114	-0.044971
35293		-0.116096	-0.030280	-0.992776	-0.985408	0.128772	0.111307	0.124471	0.991212	-0.044788
35294		-0.117667	-0.029897	-0.992603	-0.985304	0.128141	0.112942	0.123817	0.991305	-0.044536
35296		-0.122222	-0.028374	-0.992097	-0.985321	0.123501	0.117855	0.119181	0.991939	-0.043052
35297		-0.127792	-0.026149	-0.991456	-0.984639	0.123265	0.123663	0.118978	0.992029	-0.041499
35298		-0.136580	-0.022341	-0.990377	-0.982796	0.128527	0.132636	0.124327	0.991454	-0.039511
35299		-0.149837	-0.017559	-0.988555	-0.979918	0.135686	0.146118	0.131568	0.990596	-0.037537
35300		-0.168990	-0.012903	-0.985533	-0.976123	0.140647	0.165535	0.136477	0.989976	-0.036363
35301		-0.196683	-0.008389	-0.980431	-0.970825	0.141561	0.193545	0.137167	0.989894	-0.035987
35302		-0.235364	-0.006793	-0.971883	-0.963422	0.133481	0.232382	0.128150	0.991028	-0.037961
35303		-0.282244	-0.009455	-0.959296	-0.952405	0.122797	0.279007	0.115161	0.992387	-0.043664
35304		-0.327616	-0.011948	-0.944735	-0.937523	0.128068	0.323495	0.117125	0.991693	-0.053159
35305		-0.368153	-0.015972	-0.929628	-0.922967	0.126970	0.363333	0.112232	0.991778	-0.061486
35306		-0.407028	-0.019546	-0.913207	-0.908595	0.111243	0.402591	0.093719	0.993601	-0.063038
35307		-0.442373	-0.023826	-0.896515	-0.891920	0.116156	0.437019	0.093723	0.992945	-0.072635
35308		-0.475383	-0.031671	-0.879209	-0.875625	0.114034	0.469337	0.085395	0.992972	-0.081942
35309		-0.505413	-0.037194	-0.862076	-0.859872	0.105031	0.499589	0.071962	0.993773	-0.085066
35310		-0.539279	-0.032240	-0.841510	-0.837676	0.123146	0.532104	0.086473	0.991865	-0.093416
35311		-0.570614	-0.029245	-0.820698	-0.814327	0.149349	0.560862	0.106168	0.988352	-0.109036
35312		-0.597825	-0.025552	-0.801219	-0.793560	0.160303	0.586997	0.113439	0.986737	-0.116110
35313		-0.619941	-0.019602	-0.784404	-0.774353	0.176693	0.607582	0.126689	0.984071	-0.124718
35314		-0.637937	-0.010030	-0.770023	-0.754995	0.205147	0.622815	0.151721	0.978680	-0.138443
35315		-0.651939	-0.003859	-0.758262	-0.741095	0.214880	0.636086	0.160481	0.976633	-0.142948
35316		-0.661054	0.000722	-0.750338	-0.732306	0.217294	0.645377	0.163510	0.976106	-0.143114
35317		-0.662944	0.007288	-0.748634	-0.726466	0.235460	0.645605	0.180979	0.971857	-0.150802
35318		-0.657523	0.008282	-0.753389	-0.729393	0.243589	0.639258	0.188811	0.969843	-0.154125
35319		-0.642797	0.001378	-0.766035	-0.744041	0.236786	0.624768	0.182247	0.971561	-0.151180
35320		-0.613370	-0.013980	-0.789672	-0.771545	0.224311	0.595318	0.168809	0.974417	-0.148372
35321		-0.563894	-0.035816	-0.825070	-0.813279	0.197719	0.547252	0.143532	0.979604	-0.140621
35322		-0.488727	-0.054781	-0.870715	-0.864592	0.163946	0.474976	0.116731	0.984947	-0.127488
35323		-0.380736	-0.068817	-0.922120	-0.921781	0.107208	0.372595	0.073218	0.991852	-0.104252
35324		-0.241686	-0.075236	-0.967433	-0.970340	0.024150	0.240534	0.005267	0.996873	-0.078842
35325		-0.085401	-0.049412	-0.995121	-0.993585	-0.070084	0.088749	-0.074127	0.996317	-0.043109
35326		-0.091711	-0.053249	-0.994361	-0.982411	-0.158276	0.099085	-0.162660	0.985958	-0.037797
35327		-0.174305	-0.105823	-0.978989	-0.938868	-0.281899	0.197634	-0.296891	0.953590	-0.050217
35328		-0.310152	-0.156298	-0.937751	-0.914343	-0.221089	0.339260	-0.260352	0.962648	-0.074339
35329		-0.464096	-0.188327	-0.865533	-0.878219	-0.029607	0.477341	-0.115522	0.981660	-0.151652
35330		-0.573554	-0.215083	-0.790427	-0.818436	0.109682	0.564032	-0.034619	0.970417	-0.238940
35331		-0.633243	-0.253072	-0.731408	-0.766126	0.070902	0.638768	-0.109796	0.964846	-0.238784
35332		-0.655516	-0.269054	-0.705626	-0.724386	-0.040087	0.688228	-0.213457	0.962291	-0.168621
35333		-0.652933	-0.261042	-0.711010	-0.705618	-0.131541	0.696276	-0.275284	0.956323	-0.098308
35334		-0.622162	-0.248193	-0.742506	-0.732272	-0.151001	0.664061	-0.276934	0.956869	-0.087798
35335		-0.572960	-0.219573	-0.789623	-0.793618	-0.091951	0.601428	-0.204664	0.971253	-0.121573
35336		-0.521498	-0.181816	-0.833656	-0.849524	0.019403	0.527192	-0.079676	0.983141	-0.164576
35337		-0.463508	-0.143197	-0.874446	-0.885750	0.102325	0.452743	0.024646	0.984390	-0.174265
35338		-0.398076	-0.117469	-0.909800	-0.915847	0.107693	0.386817	0.052541	0.987220	-0.150453
35339		-0.331450	-0.106350	-0.937460	-0.943467	0.040828	0.328942	0.003292	0.993490	-0.113870
35340		-0.292737	-0.053085	-0.954718	-0.955992	0.036717	0.291086	0.019602	0.997915	-0.061497
35341		-0.379346	-0.071860	-0.922460	-0.914589	0.180069	0.362081	0.140087	0.981026	-0.134031
35342		-0.512575	-0.037089	-0.857841	-0.849497	0.167333	0.500355	0.124987	0.985203	-0.117278
35343		-0.529484	-0.047843	-0.846970	-0.840130	0.167975	0.515719	0.117596	0.984630	-0.129134
35344		-0.551298	-0.078128	-0.830642	-0.830406	0.147566	0.537262	0.080599	0.985962	-0.146231
35345		-0.545063	-0.095533	-0.832935	-0.837378	0.110959	0.535244	0.041288	0.989223	-0.140477
35346		-0.556502	-0.100155	-0.824787	-0.830384	0.100151	0.548117	0.027707	0.989919	-0.138902
35347		-0.555560	-0.101224	-0.825292	-0.830063	0.125375	0.543394	0.048467	0.986932	-0.153676
35348		-0.531946	-0.103053	-0.840484	-0.844841	0.131685	0.518558	0.057240	0.985921	-0.157112
35349		-0.499723	-0.105998	-0.859675	-0.865930	0.085198	0.492855	0.021001	0.990710	-0.134362
35351		-0.430967	-0.108387	-0.895835	-0.902354	0.046213	0.428512	-0.005046	0.993034	-0.117720
35352		-0.396043	-0.105009	-0.912208	-0.918218	0.050806	0.392804	0.005097	0.993173	-0.116543
35354		-0.317385	-0.097422	-0.943279	-0.948294	0.035008	0.315457	0.002290	0.994627	-0.103495
35355		-0.280870	-0.091223	-0.955401	-0.959746	0.025916	0.279673	-0.000753	0.995493	-0.094830
35356		-0.246581	-0.085201	-0.965370	-0.969095	0.029203	0.244955	0.007321	0.995936	-0.089769
35357		-0.218778	-0.080345	-0.972461	-0.975586	0.037598	0.216375	0.019178	0.996058	-0.086609
35358		-0.200692	-0.077801	-0.976560	-0.979406	0.038395	0.198217	0.022074	0.996229	-0.083904
35361		-0.194763	-0.077947	-0.977748	-0.979809	0.061374	0.190281	0.045177	0.995067	-0.088327
35362		-0.197584	-0.076528	-0.977294	-0.978624	0.073431	0.192102	0.057062	0.994360	-0.089401
35363		-0.196908	-0.075215	-0.977533	-0.978077	0.083987	0.190555	0.067767	0.993624	-0.090104
35364		-0.191674	-0.074889	-0.978597	-0.979022	0.084812	0.185266	0.069122	0.993579	-0.089574
35365		-0.183936	-0.075849	-0.980007	-0.980761	0.080490	0.177847	0.065391	0.993865	-0.089194
35367		-0.170222	-0.078401	-0.982282	-0.983321	0.078321	0.164150	0.064064	0.993841	-0.090425
35371		-0.152570	-0.080521	-0.985007	-0.986364	0.074641	0.146679	0.061712	0.993954	-0.090811
35372		-0.148076	-0.079761	-0.985754	-0.987017	0.074626	0.142227	0.062218	0.994017	-0.089776
35373		-0.144677	-0.078782	-0.986338	-0.987608	0.072768	0.139051	0.060819	0.994232	-0.088334
35374		-0.142063	-0.077187	-0.986844	-0.988041	0.071434	0.136648	0.059947	0.994454	-0.086412
35375		-0.140501	-0.075796	-0.987175	-0.988093	0.073878	0.134959	0.062701	0.994383	-0.085273
35376		-0.139672	-0.074238	-0.987411	-0.987771	0.080217	0.133692	0.069282	0.994009	-0.084535
35377		-0.140010	-0.073060	-0.987451	-0.987240	0.086708	0.133565	0.075862	0.993551	-0.084268
35378		-0.141157	-0.071656	-0.987391	-0.986743	0.090861	0.134471	0.080080	0.993282	-0.083532
35379		-0.142655	-0.070376	-0.987267	-0.986420	0.092135	0.135965	0.081393	0.993256	-0.082564
35380		-0.143907	-0.069545	-0.987145	-0.986437	0.089660	0.137487	0.078946	0.993541	-0.081504
35381		-0.144815	-0.069017	-0.987049	-0.986593	0.085944	0.138739	0.075255	0.993907	-0.080538
35382		-0.145785	-0.068400	-0.986949	-0.986596	0.083977	0.139913	0.073311	0.994117	-0.079726
35383		-0.147196	-0.067460	-0.986804	-0.986509	0.082286	0.141527	0.071652	0.994323	-0.078662
35384		-0.149074	-0.066838	-0.986565	-0.986395	0.079965	0.143631	0.069291	0.994554	-0.077849
35385		-0.151173	-0.066372	-0.986277	-0.986274	0.077156	0.145981	0.066408	0.994807	-0.077125
35386		-0.153426	-0.065788	-0.985968	-0.985972	0.076562	0.148318	0.065730	0.994892	-0.076612
35387		-0.155605	-0.065330	-0.985657	-0.985618	0.076838	0.150506	0.065904	0.994901	-0.076347
35388		-0.157715	-0.065048	-0.985340	-0.985386	0.075386	0.152746	0.064345	0.995031	-0.075987
35389		-0.159671	-0.065014	-0.985027	-0.985258	0.072576	0.154918	0.061417	0.995242	-0.075643
35390		-0.161210	-0.065050	-0.984774	-0.985254	0.068568	0.156759	0.057327	0.995523	-0.075145
35391		-0.162749	-0.065256	-0.984507	-0.985255	0.064126	0.158622	0.052782	0.995806	-0.074730
35392		-0.164309	-0.065237	-0.984249	-0.985218	0.059861	0.160503	0.048448	0.996073	-0.074108
35393		-0.166522	-0.064835	-0.983904	-0.985048	0.055637	0.163049	0.044170	0.996344	-0.073131
35394		-0.169095	-0.064441	-0.983491	-0.984783	0.051670	0.165932	0.040124	0.996583	-0.072197
35395		-0.172124	-0.064038	-0.982992	-0.984383	0.048582	0.169203	0.036920	0.996764	-0.071400
35396		-0.175301	-0.063868	-0.982441	-0.983837	0.048393	0.172404	0.036532	0.996784	-0.071319
35397		-0.178639	-0.063623	-0.981856	-0.983197	0.049658	0.175665	0.037581	0.996738	-0.071424
35398		-0.181467	-0.063819	-0.981324	-0.982658	0.050448	0.178433	0.038118	0.996686	-0.071867
35399		-0.183977	-0.064526	-0.980810	-0.982231	0.049713	0.180973	0.037081	0.996677	-0.072525
35401		-0.188467	-0.066858	-0.979801	-0.981469	0.047993	0.185513	0.034620	0.996608	-0.074664
35402		-0.190998	-0.068598	-0.979190	-0.980989	0.048248	0.187969	0.034349	0.996477	-0.076509
35403		-0.193467	-0.070551	-0.978567	-0.980503	0.048905	0.190324	0.034430	0.996309	-0.078637
35404		-0.196282	-0.073262	-0.977807	-0.979948	0.049534	0.193001	0.034295	0.996082	-0.081516
35406		-0.199928	-0.078906	-0.976628	-0.979128	0.053276	0.196136	0.036554	0.995457	-0.087910
35407		-0.200341	-0.082925	-0.976211	-0.978793	0.060433	0.195737	0.042764	0.994722	-0.093273
35409		-0.202139	-0.090909	-0.975128	-0.978238	0.066318	0.196601	0.046796	0.993649	-0.102336
35410		-0.201776	-0.093792	-0.974930	-0.978053	0.072086	0.195488	0.051943	0.992979	-0.106278
35411		-0.201253	-0.096674	-0.974757	-0.977788	0.079307	0.194013	0.058549	0.992151	-0.110487
35412		-0.200734	-0.100019	-0.974527	-0.977850	0.080656	0.193140	0.059284	0.991711	-0.113994
35415		-0.198382	-0.108905	-0.974056	-0.978349	0.081804	0.190111	0.058978	0.990681	-0.122775
35416		-0.198511	-0.110931	-0.973801	-0.978359	0.081595	0.190146	0.058364	0.990473	-0.124728
35417		-0.199244	-0.112787	-0.973438	-0.978221	0.081866	0.190738	0.058179	0.990241	-0.126642
35418		-0.199873	-0.114827	-0.973070	-0.978320	0.078357	0.191705	0.054234	0.990290	-0.127999
35419		-0.200138	-0.116292	-0.972842	-0.978360	0.076926	0.192078	0.052500	0.990232	-0.129171
35420		-0.199802	-0.116891	-0.972839	-0.978325	0.078925	0.191445	0.054403	0.990004	-0.130127
35421		-0.198511	-0.117090	-0.973079	-0.978539	0.079664	0.190039	0.055268	0.989921	-0.130392
35422		-0.196963	-0.116443	-0.973471	-0.978824	0.079825	0.188498	0.055758	0.989984	-0.129699
35423		-0.196495	-0.114638	-0.973780	-0.978784	0.081741	0.187881	0.058060	0.990039	-0.128267
35424		-0.197840	-0.111900	-0.973826	-0.978280	0.085235	0.188951	0.061861	0.990057	-0.126333
35425		-0.201503	-0.108135	-0.973501	-0.977217	0.089828	0.192295	0.066654	0.990070	-0.123772
35426		-0.207102	-0.103762	-0.972801	-0.975759	0.093799	0.197727	0.070732	0.990169	-0.120672
35427		-0.214544	-0.099029	-0.971681	-0.973958	0.096376	0.205224	0.073323	0.990407	-0.117127
35428		-0.223475	-0.093617	-0.970203	-0.971983	0.095810	0.214640	0.072862	0.990988	-0.112405
35429		-0.234674	-0.087104	-0.968164	-0.969764	0.089600	0.227001	0.066975	0.992162	-0.105497
35430		-0.249414	-0.078769	-0.965188	-0.966380	0.084535	0.242823	0.062465	0.993302	-0.097205
35431		-0.267459	-0.068675	-0.961119	-0.961597	0.082815	0.261674	0.061625	0.994196	-0.088187
35432		-0.289216	-0.057770	-0.955519	-0.954834	0.088477	0.283660	0.068155	0.994402	-0.080750
35433		-0.315951	-0.044896	-0.947713	-0.945581	0.096803	0.310654	0.077794	0.994290	-0.073038
35434		-0.346132	-0.032498	-0.937623	-0.934727	0.097677	0.341678	0.080481	0.994687	-0.064186
35435		-0.377382	-0.022916	-0.925774	-0.922938	0.091288	0.373967	0.075942	0.995561	-0.055600
35436		-0.409148	-0.014374	-0.912355	-0.910147	0.077693	0.406934	0.065034	0.996874	-0.044870
35437		-0.440950	-0.006300	-0.897510	-0.895734	0.066345	0.439612	0.056776	0.997777	-0.034898
35438		-0.474790	0.000958	-0.880099	-0.878524	0.059297	0.474004	0.052641	0.998240	-0.027312
35439		-0.511164	0.008137	-0.859445	-0.858122	0.051431	0.510864	0.048359	0.998643	-0.019307
35440		-0.550940	0.013652	-0.834433	-0.833156	0.048661	0.550893	0.048125	0.998722	-0.015434
35441		-0.592589	0.014091	-0.805382	-0.804348	0.043224	0.592585	0.043162	0.998966	-0.014281
35442		-0.633158	0.012315	-0.773925	-0.773159	0.037144	0.633123	0.036544	0.999234	-0.013997
35443		-0.670905	0.016151	-0.741367	-0.740079	0.048217	0.670789	0.046581	0.998706	-0.020396
35444		-0.703606	0.031306	-0.709900	-0.706056	0.081881	0.703406	0.080148	0.996150	-0.035508
35445		-0.730715	0.060229	-0.680020	-0.669221	0.133642	0.730947	0.134903	0.989198	-0.057348
35446		-0.749069	0.096841	-0.655376	-0.634385	0.180243	0.751710	0.190923	0.978843	-0.073580
35447		-0.750480	0.138582	-0.646200	-0.619705	0.192219	0.760932	0.229663	0.971518	-0.058377
35448		-0.735856	0.184706	-0.651460	-0.623857	0.189148	0.758305	0.263286	0.964420	-0.023956
35449		-0.709282	0.234037	-0.664940	-0.634923	0.197707	0.746849	0.306254	0.951913	0.008365
35450		-0.672330	0.285139	-0.683131	-0.643843	0.230144	0.729726	0.365292	0.930446	0.028852
35451		-0.625592	0.334534	-0.704784	-0.645873	0.284628	0.708403	0.437586	0.898373	0.038006
35452		-0.570569	0.381646	-0.727185	-0.636057	0.354761	0.685256	0.519502	0.853517	0.040333
35453		-0.509243	0.426110	-0.747731	-0.607030	0.438045	0.663047	0.610071	0.791547	0.035590
35454		-0.441309	0.467150	-0.766171	-0.552900	0.530938	0.642189	0.706787	0.707019	0.023979
35455		-0.368192	0.504715	-0.780831	-0.478491	0.617209	0.624580	0.797170	0.603586	0.014251
35456		-0.292411	0.534110	-0.793235	-0.400191	0.685018	0.608767	0.868529	0.495456	0.013439
35457		-0.218875	0.552095	-0.804540	-0.325413	0.736027	0.593608	0.919892	0.391733	0.018561
35458		-0.149791	0.558528	-0.815849	-0.253607	0.775847	0.577706	0.955639	0.293440	0.025432
35459		-0.086861	0.554560	-0.827598	-0.181389	0.808047	0.560498	0.979568	0.198802	0.030403
35461		0.033154	0.523426	-0.851426	-0.019192	0.852071	0.523075	0.999266	-0.001002	0.038295
35462		0.089387	0.497973	-0.862573	0.078239	0.859853	0.504511	0.992919	-0.112583	0.037899
35463		0.140092	0.466116	-0.873562	0.179033	0.855795	0.485347	0.973818	-0.224390	0.036440
35464		0.182871	0.428494	-0.884845	0.271915	0.842869	0.464363	0.944786	-0.325522	0.037623
35465		0.215248	0.388590	-0.895916	0.355009	0.823517	0.442480	0.909746	-0.413301	0.039308
35467		0.237002	0.313119	-0.919666	0.477091	0.787116	0.390938	0.846294	-0.531418	0.037161
35468		0.227263	0.276121	-0.933867	0.518985	0.777092	0.356065	0.824018	-0.565584	0.033302
35469		0.224673	0.253539	-0.940872	0.549476	0.764440	0.337206	0.804735	-0.592747	0.032435
35470		0.221391	0.276338	-0.935213	0.545731	0.759673	0.353659	0.808185	-0.588672	0.017378
35471		0.200229	0.265643	-0.943049	0.520510	0.786627	0.332096	0.830047	-0.557361	0.019236
35472		0.187289	0.253707	-0.948976	0.538452	0.781486	0.315197	0.821579	-0.570011	0.009755
35473		0.171436	0.236561	-0.956373	0.565858	0.771010	0.292145	0.806483	-0.591255	-0.001682
35474		0.153613	0.218704	-0.963624	0.554359	0.788199	0.267260	0.817979	-0.575248	-0.000163
35475		0.130072	0.204432	-0.970200	0.538203	0.807250	0.242252	0.832718	-0.553674	-0.005026
35476		0.109456	0.190422	-0.975581	0.533267	0.817027	0.219304	0.838836	-0.544249	-0.012117
35477		0.091959	0.178694	-0.979598	0.533040	0.822111	0.200004	0.841078	-0.540557	-0.019651
35478		0.076757	0.169325	-0.982567	0.538284	0.822480	0.183787	0.839261	-0.543007	-0.028014
35479		0.064427	0.162237	-0.984646	0.545971	0.820195	0.170865	0.835323	-0.548597	-0.035734
35480		0.053699	0.158903	-0.985833	0.556707	0.814826	0.161663	0.828971	-0.557501	-0.044707
35481		0.046314	0.159963	-0.986036	0.571522	0.805331	0.157492	0.819278	-0.570836	-0.054125
35482		0.042105	0.160971	-0.986061	0.590608	0.792027	0.154515	0.805859	-0.588881	-0.061723
35483		0.040675	0.166188	-0.985255	0.613039	0.774508	0.155949	0.789005	-0.610343	-0.070377
35484		0.040550	0.172466	-0.984181	0.628066	0.761670	0.159350	0.777103	-0.624592	-0.077434
35485		0.039621	0.178521	-0.983138	0.637584	0.753061	0.162438	0.769361	-0.633269	-0.083985
35486		0.036372	0.181537	-0.982711	0.648903	0.743561	0.161376	0.760002	-0.643553	-0.090756
35487		0.032948	0.181233	-0.982888	0.660936	0.733739	0.157449	0.749718	-0.654814	-0.095608
35488		0.027766	0.178732	-0.983506	0.671927	0.725114	0.150744	0.740097	-0.665030	-0.099961
35489		0.022821	0.175533	-0.984209	0.682330	0.716790	0.143661	0.730688	-0.674834	-0.103414
35490		0.019137	0.172211	-0.984874	0.694741	0.706099	0.136965	0.719005	-0.686854	-0.106130
35491		0.017336	0.170207	-0.985256	0.711223	0.690500	0.131801	0.702752	-0.703022	-0.109084
35492		0.017558	0.169309	-0.985407	0.728182	0.673203	0.128642	0.685159	-0.719814	-0.111468
35493		0.020425	0.168576	-0.985477	0.744057	0.655817	0.127606	0.667804	-0.735858	-0.112035
35494		0.025316	0.167770	-0.985501	0.759595	0.637663	0.128067	0.649903	-0.751824	-0.111294
35495		0.030794	0.166868	-0.985498	0.773126	0.620934	0.129297	0.633504	-0.765896	-0.109889
35496		0.036508	0.165370	-0.985556	0.785208	0.605292	0.130651	0.618155	-0.778636	-0.107752
35497		0.041142	0.162483	-0.985853	0.796516	0.590357	0.130540	0.603216	-0.790619	-0.105131
35498		0.044374	0.159154	-0.986256	0.805791	0.577866	0.129506	0.590535	-0.800463	-0.102603
35499		0.046322	0.155668	-0.986723	0.811860	0.569652	0.127983	0.582011	-0.807010	-0.099993
35500		0.047505	0.151803	-0.987268	0.818549	0.560543	0.125577	0.572469	-0.814093	-0.097630
35501		0.047975	0.148034	-0.987818	0.823993	0.553109	0.122908	0.564565	-0.819851	-0.095444
35502		0.048754	0.144579	-0.988291	0.826574	0.549627	0.121182	0.560712	-0.822804	-0.092709
35503		0.052677	0.141486	-0.988538	0.826229	0.549805	0.122719	0.560866	-0.823223	-0.087938
35504		0.063398	0.139732	-0.988158	0.819784	0.557391	0.131414	0.569153	-0.818407	-0.079213
35505		0.081410	0.143403	-0.986310	0.811014	0.565685	0.149188	0.579335	-0.812056	-0.070249
35506		0.104550	0.153596	-0.982587	0.802282	0.570841	0.174598	0.587719	-0.806566	-0.063546
35507		0.127361	0.166054	-0.977858	0.794715	0.572814	0.200779	0.593471	-0.802689	-0.059012
35508		0.147036	0.171239	-0.974196	0.792500	0.568955	0.219621	0.591882	-0.804342	-0.052050
35509		0.165672	0.167414	-0.971867	0.799449	0.554230	0.231753	0.577437	-0.815353	-0.042018
35510		0.182754	0.154350	-0.970967	0.824005	0.514675	0.236908	0.536300	-0.843377	-0.033126
35511		0.200973	0.130559	-0.970858	0.877521	0.416502	0.237662	0.435393	-0.899712	-0.030863
35512		0.209612	0.100643	-0.972591	0.947516	0.224670	0.227457	0.241405	-0.969223	-0.048267
35513		0.203339	0.059349	-0.977308	0.978855	0.010378	0.204291	0.022267	-0.998183	-0.055983
35514		0.182420	0.025216	-0.982897	0.976640	-0.120111	0.178177	-0.113564	-0.992440	-0.046538
35515		0.158889	0.006981	-0.987272	0.973488	-0.167764	0.155484	-0.164544	-0.985802	-0.033452
35516		0.139014	0.013673	-0.990196	0.982521	-0.126908	0.136185	-0.123802	-0.991820	-0.031076
35517		0.111475	0.010118	-0.993716	0.990951	-0.076357	0.110388	-0.074760	-0.997029	-0.018538
35518		0.107784	0.003078	-0.994170	0.982601	-0.152472	0.106058	-0.151257	-0.988303	-0.019459
35519		0.106677	0.002113	-0.994292	0.977690	-0.182207	0.104508	-0.180946	-0.983258	-0.021504
35520		0.112218	0.011920	-0.993612	0.985612	-0.128527	0.109772	-0.126398	-0.991634	-0.026172
35521		0.123510	0.017847	-0.992183	0.987998	-0.095677	0.121268	-0.092765	-0.995252	-0.029450
35522		0.141269	0.017801	-0.989811	0.983706	-0.114836	0.138332	-0.111203	-0.993225	-0.033734
35523		0.162274	0.019253	-0.986558	0.978426	-0.132702	0.158346	-0.127870	-0.990969	-0.040371
35524		0.184975	0.023259	-0.982468	0.975717	-0.123678	0.180776	-0.117305	-0.992050	-0.045572
35525		0.206540	0.026787	-0.978071	0.972599	-0.114670	0.202244	-0.106738	-0.993042	-0.049737
35526		0.226708	0.028616	-0.973542	0.967845	-0.118476	0.221899	-0.108992	-0.992544	-0.054555
35527		0.246657	0.029170	-0.968664	0.962397	-0.124753	0.241305	-0.113805	-0.991759	-0.058844
35528		0.269136	0.030224	-0.962628	0.956378	-0.126291	0.263423	-0.113610	-0.991533	-0.062895
35529		0.293373	0.029289	-0.955549	0.949696	-0.123506	0.287790	-0.109587	-0.991911	-0.064049
35530		0.314529	0.031937	-0.948711	0.943077	-0.124287	0.308477	-0.108060	-0.991732	-0.069211
35531		0.336760	0.033486	-0.940995	0.935470	-0.125659	0.330311	-0.107184	-0.991508	-0.073642
35532		0.355241	0.036031	-0.934080	0.928951	-0.124972	0.348470	-0.104179	-0.991506	-0.077866
35533		0.371564	0.038445	-0.927611	0.922996	-0.123017	0.364617	-0.100094	-0.991660	-0.081193
35534		0.386327	0.041367	-0.921434	0.917501	-0.119658	0.379306	-0.094566	-0.991953	-0.084182
35535		0.399679	0.045392	-0.915530	0.912088	-0.119275	0.392263	-0.091394	-0.991823	-0.089073
35536		0.412587	0.050029	-0.909543	0.906158	-0.124482	0.404205	-0.093000	-0.990960	-0.096694
35537		0.423890	0.053604	-0.904126	0.900519	-0.131700	0.414391	-0.096861	-0.989839	-0.104097
35538		0.433887	0.055604	-0.899250	0.895591	-0.135489	0.423744	-0.098277	-0.989217	-0.108585
35540		0.452640	0.051930	-0.890180	0.885183	-0.146586	0.441548	-0.107558	-0.987834	-0.112318
35541		0.461285	0.047539	-0.885977	0.879124	-0.159344	0.449167	-0.119823	-0.986078	-0.115295
35542		0.469016	0.041648	-0.882207	0.873466	-0.169689	0.456359	-0.130694	-0.984617	-0.115965
35543		0.476266	0.034869	-0.878610	0.868229	-0.176721	0.463625	-0.139103	-0.983643	-0.114440
35544		0.482376	0.028729	-0.875493	0.863451	-0.183922	0.469707	-0.147528	-0.982521	-0.113525
35545		0.487992	0.022757	-0.872551	0.859009	-0.189830	0.475467	-0.154817	-0.981553	-0.112184
35546		0.492751	0.018254	-0.869979	0.854816	-0.197138	0.480026	-0.162744	-0.980206	-0.112744
35547		0.497182	0.015317	-0.867511	0.850858	-0.204339	0.484031	-0.169852	-0.978780	-0.114627
35548		0.500983	0.013455	-0.865353	0.847553	-0.209957	0.487413	-0.175129	-0.977618	-0.116588
35549		0.504553	0.012679	-0.863287	0.844443	-0.215519	0.490374	-0.179837	-0.976417	-0.119448
35550		0.507717	0.011659	-0.861445	0.841303	-0.222076	0.492840	-0.185560	-0.974960	-0.122560
35551		0.510663	0.010416	-0.859718	0.838505	-0.227105	0.495311	-0.190087	-0.973815	-0.124708
35552		0.513668	0.008878	-0.857943	0.835979	-0.230221	0.498135	-0.193095	-0.973098	-0.125679
35553		0.516975	0.006426	-0.855976	0.833110	-0.233482	0.501412	-0.196633	-0.972340	-0.126058
35554		0.520789	0.003178	-0.853680	0.829337	-0.239009	0.505049	-0.202432	-0.971012	-0.127109
35555		0.525053	-0.000606	-0.851069	0.825384	-0.243459	0.509380	-0.207509	-0.969911	-0.127329
35557		0.533177	-0.008999	-0.845956	0.817885	-0.250176	0.518146	-0.216301	-0.968159	-0.126028
35558		0.535847	-0.012150	-0.844228	0.815143	-0.253120	0.521029	-0.220022	-0.967359	-0.125729
35559		0.536941	-0.013761	-0.843508	0.814234	-0.253149	0.522436	-0.220722	-0.967330	-0.124721
35560		0.536775	-0.015155	-0.843589	0.814326	-0.252328	0.522689	-0.220782	-0.967523	-0.123102
35561		0.536047	-0.015427	-0.844047	0.814947	-0.251412	0.522161	-0.220259	-0.967757	-0.122197
35562		0.534132	-0.015580	-0.845258	0.816448	-0.249918	0.520533	-0.219355	-0.968142	-0.120769
35564		0.527922	-0.016195	-0.849138	0.821399	-0.244400	0.515337	-0.215876	-0.969539	-0.115722
35565		0.523095	-0.016734	-0.852110	0.824724	-0.242215	0.511040	-0.214946	-0.970078	-0.112900
35566		0.517165	-0.017222	-0.855713	0.828791	-0.239499	0.505714	-0.213651	-0.970744	-0.109587
35567		0.510345	-0.017852	-0.859784	0.832990	-0.238203	0.499387	-0.213718	-0.971051	-0.106695
35568		0.503646	-0.018698	-0.863708	0.836982	-0.237109	0.493195	-0.214015	-0.971303	-0.103769
35569		0.497522	-0.019794	-0.867225	0.840885	-0.234520	0.487764	-0.213037	-0.971910	-0.100034
35570		0.491770	-0.021242	-0.870466	0.844526	-0.231749	0.482771	-0.211985	-0.972544	-0.096028
35571		0.486452	-0.022672	-0.873413	0.847500	-0.230760	0.478009	-0.212386	-0.972747	-0.093039
35572		0.481310	-0.023438	-0.876237	0.850348	-0.230106	0.473244	-0.212719	-0.972883	-0.090822
35574		0.470969	-0.022731	-0.881857	0.858022	-0.220398	0.463921	-0.204905	-0.975145	-0.084297
35575		0.467345	-0.022236	-0.883796	0.860986	-0.215529	0.460706	-0.200728	-0.976244	-0.081581
35576		0.464584	-0.022060	-0.885254	0.862472	-0.215366	0.457995	-0.200757	-0.976284	-0.081030
35577		0.462403	-0.022113	-0.886394	0.863344	-0.216566	0.455781	-0.202042	-0.976017	-0.081050
35578		0.460378	-0.022458	-0.887439	0.864612	-0.215281	0.453983	-0.201245	-0.976294	-0.079693
35579		0.457909	-0.022213	-0.888722	0.866397	-0.212838	0.451726	-0.199188	-0.976835	-0.078215
35580		0.454731	-0.021021	-0.890381	0.868829	-0.209367	0.448667	-0.195848	-0.977611	-0.076942
35581		0.450522	-0.019410	-0.892554	0.871845	-0.205595	0.444540	-0.192134	-0.978445	-0.075703
35582		0.444967	-0.017003	-0.895385	0.875478	-0.202220	0.438914	-0.188528	-0.979193	-0.075095
35583		0.438849	-0.014218	-0.898448	0.879828	-0.196302	0.432860	-0.182522	-0.980440	-0.073637
35584		0.431325	-0.010049	-0.902140	0.884929	-0.189987	0.425213	-0.175668	-0.981735	-0.073053
35585		0.422619	-0.005808	-0.906289	0.890900	-0.180942	0.416602	-0.166405	-0.983477	-0.071295
35586		0.412574	-0.000910	-0.910924	0.897280	-0.172026	0.406567	-0.157072	-0.985092	-0.070157
35587		0.402990	0.004739	-0.915192	0.903012	-0.164743	0.396774	-0.148891	-0.986325	-0.070669
35588		0.393187	0.011679	-0.919385	0.909710	-0.150163	0.387142	-0.133536	-0.988592	-0.069667
35589		0.383932	0.021176	-0.923118	0.917583	-0.120423	0.378867	-0.103142	-0.992497	-0.065665
35590		0.374171	0.030239	-0.926867	0.924268	-0.093704	0.370065	-0.075661	-0.995141	-0.063010
35591		0.365667	0.038043	-0.929968	0.928870	-0.078312	0.362032	-0.059055	-0.996203	-0.063973
35592		0.357308	0.044168	-0.932942	0.932874	-0.065612	0.354175	-0.045569	-0.996867	-0.064647
35593		0.349130	0.047710	-0.935859	0.936528	-0.051880	0.346734	-0.032010	-0.997513	-0.062795
35594		0.341133	0.049592	-0.938706	0.939695	-0.044056	0.339165	-0.024535	-0.997797	-0.061630
35595		0.332842	0.048911	-0.941713	0.942705	-0.041464	0.331040	-0.022855	-0.997942	-0.059910
35596		0.324061	0.046267	-0.944904	0.945719	-0.041685	0.322300	-0.024476	-0.998059	-0.057264
35597		0.314994	0.042166	-0.948157	0.948660	-0.044175	0.313197	-0.028678	-0.998134	-0.053916
35598		0.305777	0.037414	-0.951368	0.951654	-0.042699	0.304190	-0.029241	-0.998387	-0.048661
35599		0.296403	0.032480	-0.954510	0.954557	-0.042614	0.294967	-0.031095	-0.998564	-0.043635
35600		0.287528	0.027489	-0.957378	0.957107	-0.045489	0.286141	-0.035685	-0.998587	-0.039389
35601		0.278935	0.022617	-0.960044	0.959398	-0.050136	0.277566	-0.041855	-0.998486	-0.035683
35602		0.270356	0.018165	-0.962589	0.961547	-0.055276	0.269020	-0.048322	-0.998306	-0.032411
35603		0.261672	0.013802	-0.965058	0.963780	-0.057137	0.260508	-0.051545	-0.998271	-0.028254
35604		0.252709	0.009805	-0.967493	0.966131	-0.056551	0.251780	-0.052244	-0.998352	-0.023764
35605		0.243811	0.005688	-0.969806	0.968278	-0.057841	0.243088	-0.054712	-0.998310	-0.019610
35606		0.235137	0.001657	-0.971961	0.970242	-0.059870	0.234619	-0.057802	-0.998205	-0.015685
35607		0.227181	-0.001115	-0.973852	0.972009	-0.061235	0.226821	-0.059887	-0.998123	-0.012828
35608		0.220169	-0.003263	-0.975456	0.973681	-0.059664	0.219967	-0.058917	-0.998213	-0.009959
35609		0.214033	-0.004660	-0.976815	0.975047	-0.059306	0.213929	-0.058928	-0.998229	-0.008150
35610		0.208676	-0.005615	-0.977969	0.976081	-0.061169	0.208624	-0.060992	-0.998112	-0.007284
35611		0.204274	-0.006787	-0.978890	0.977021	-0.060747	0.204305	-0.060851	-0.998130	-0.005778
35612		0.200646	-0.007329	-0.979636	0.977987	-0.056988	0.200734	-0.057298	-0.998348	-0.004266
35613		0.197666	-0.007921	-0.980237	0.978808	-0.052988	0.197806	-0.053507	-0.998564	-0.002721
35614		0.195061	-0.008547	-0.980754	0.979440	-0.050775	0.195243	-0.051466	-0.998674	-0.001533
35615		0.192399	-0.009115	-0.981275	0.980005	-0.049895	0.192613	-0.050716	-0.998713	-0.000667
35616		0.189474	-0.009897	-0.981836	0.980551	-0.050213	0.189732	-0.051179	-0.998689	0.000190
35617		0.187418	-0.010954	-0.982219	0.980866	-0.051556	0.187735	-0.052695	-0.998610	0.001082
35618		0.186069	-0.012230	-0.982460	0.981053	-0.052615	0.186458	-0.053973	-0.998540	0.002209
35619		0.185649	-0.013427	-0.982524	0.981016	-0.054499	0.186109	-0.056046	-0.998424	0.003054
35620		0.185587	-0.014447	-0.982522	0.980872	-0.057019	0.186114	-0.058712	-0.998269	0.003589
35621		0.186195	-0.014857	-0.982400	0.980602	-0.059527	0.186754	-0.061254	-0.998116	0.003485
35622		0.187328	-0.014778	-0.982186	0.980301	-0.060904	0.187885	-0.062596	-0.998034	0.003078
35623		0.189214	-0.014168	-0.981834	0.979879	-0.061956	0.189731	-0.063518	-0.997978	0.002160
35624		0.191425	-0.013437	-0.981415	0.979396	-0.062942	0.191892	-0.064351	-0.997927	0.001112
35625		0.193306	-0.012686	-0.981057	0.979001	-0.063478	0.193722	-0.064733	-0.997903	0.000149
35626		0.194930	-0.011431	-0.980751	0.978744	-0.062712	0.195262	-0.063737	-0.997966	-0.001036
35627		0.195854	-0.010175	-0.980580	0.978556	-0.063016	0.196104	-0.063787	-0.997961	-0.002385
35628		0.196031	-0.009620	-0.980551	0.978440	-0.064386	0.196241	-0.065022	-0.997879	-0.003209
35629		0.195143	-0.009030	-0.980733	0.978671	-0.063662	0.195319	-0.064200	-0.997931	-0.003586
35630		0.193689	-0.008889	-0.981023	0.979013	-0.062864	0.193861	-0.063394	-0.997983	-0.003474
35631		0.190949	-0.010190	-0.981547	0.979521	-0.063066	0.191209	-0.063851	-0.997957	-0.002061
35632		0.187879	-0.011425	-0.982126	0.980091	-0.063196	0.188225	-0.064217	-0.997936	-0.000676
35633		0.185079	-0.012131	-0.982649	0.980593	-0.063523	0.185476	-0.064671	-0.997907	0.000138
35634		0.183201	-0.012801	-0.982992	0.980796	-0.065676	0.183647	-0.066910	-0.997759	0.000523
35635		0.181966	-0.013626	-0.983210	0.980705	-0.070150	0.182474	-0.071458	-0.997443	0.000598
35636		0.181119	-0.014074	-0.983361	0.980617	-0.073400	0.181664	-0.074735	-0.997203	0.000507
35637		0.180700	-0.014461	-0.983432	0.980664	-0.073743	0.181276	-0.075143	-0.997172	0.000856
35638		0.179826	-0.014359	-0.983594	0.980926	-0.072402	0.180395	-0.073804	-0.997272	0.001066
35639		0.178520	-0.014603	-0.983828	0.981028	-0.074182	0.179113	-0.075598	-0.997138	0.001083
35640		0.176849	-0.014963	-0.984124	0.981092	-0.077198	0.177478	-0.078628	-0.996903	0.001028
35641		0.174806	-0.015021	-0.984488	0.981291	-0.079278	0.175448	-0.080684	-0.996739	0.000881
35642		0.172681	-0.014683	-0.984868	0.981627	-0.079839	0.173303	-0.081175	-0.996700	0.000627
35643		0.170497	-0.014458	-0.985252	0.981990	-0.080104	0.171108	-0.081397	-0.996682	0.000540
35644		0.168087	-0.014157	-0.985670	0.982308	-0.081341	0.168682	-0.082563	-0.996586	0.000234
35645		0.166053	-0.013684	-0.986022	0.982444	-0.083917	0.166615	-0.085024	-0.996379	-0.000491
35646		0.164134	-0.012993	-0.986353	0.982611	-0.085847	0.164642	-0.086814	-0.996224	-0.001323
35647		0.162483	-0.012117	-0.986637	0.982862	-0.086256	0.162921	-0.087077	-0.996199	-0.002106
35648		0.160322	-0.011139	-0.987002	0.983278	-0.085698	0.160684	-0.086374	-0.996259	-0.002786
35649		0.157590	-0.010101	-0.987453	0.983782	-0.085136	0.157875	-0.085662	-0.996318	-0.003479
35650		0.154403	-0.008891	-0.987968	0.984352	-0.084566	0.154599	-0.084923	-0.996378	-0.004305
35651		0.151174	-0.007669	-0.988477	0.985028	-0.082650	0.151288	-0.082858	-0.996549	-0.004941
35652		0.148390	-0.006157	-0.988910	0.985592	-0.081159	0.148398	-0.081172	-0.996682	-0.005975
35654		0.143983	-0.003796	-0.989573	0.986268	-0.081195	0.143814	-0.080895	-0.996691	-0.007947
35655		0.142698	-0.002695	-0.989763	0.986468	-0.081186	0.142444	-0.080739	-0.996695	-0.008926
35656		0.142142	-0.001642	-0.989845	0.986637	-0.080227	0.141814	-0.079645	-0.996775	-0.009783
35657		0.141552	-0.000714	-0.989931	0.986784	-0.079575	0.141159	-0.078874	-0.996829	-0.010559
35658		0.141187	0.000152	-0.989983	0.986888	-0.079039	0.140733	-0.078225	-0.996872	-0.011309
35659		0.141057	0.000979	-0.990001	0.987056	-0.077218	0.140561	-0.076308	-0.997014	-0.011858
35660		0.141041	0.001643	-0.990002	0.987122	-0.076478	0.140504	-0.075482	-0.997070	-0.012408
35661		0.141041	0.002152	-0.990001	0.987118	-0.076609	0.140463	-0.075541	-0.997059	-0.012929
35662		0.141063	0.002502	-0.989998	0.987039	-0.077648	0.140445	-0.076520	-0.996978	-0.013423
35663		0.141297	0.002719	-0.989964	0.986874	-0.079371	0.140638	-0.078192	-0.996841	-0.013899
35664		0.141622	0.002887	-0.989917	0.986781	-0.079998	0.140940	-0.078785	-0.996791	-0.014179
35665		0.141585	0.003041	-0.989921	0.986781	-0.080081	0.140890	-0.078845	-0.996784	-0.014339
35666		0.141418	0.003184	-0.989945	0.986677	-0.081705	0.140689	-0.080436	-0.996651	-0.014696
35667		0.141206	0.003235	-0.989975	0.986575	-0.083335	0.140448	-0.082045	-0.996516	-0.014959
35668		0.140967	0.003446	-0.990008	0.986605	-0.083410	0.140192	-0.082094	-0.996509	-0.015158
35669		0.140806	0.003655	-0.990030	0.986645	-0.083223	0.140017	-0.081882	-0.996524	-0.015324
35670		0.140655	0.003727	-0.990052	0.986649	-0.083445	0.139858	-0.082093	-0.996505	-0.015414
35671		0.140643	0.003848	-0.990053	0.986587	-0.084230	0.139823	-0.082855	-0.996439	-0.015643
35672		0.140898	0.004055	-0.990016	0.986505	-0.084819	0.140051	-0.083405	-0.996388	-0.015951
35673		0.141390	0.004242	-0.989945	0.986406	-0.085187	0.140520	-0.083735	-0.996356	-0.016229
35674		0.142373	0.004437	-0.989803	0.986154	-0.086535	0.141461	-0.085025	-0.996239	-0.016696
35675		0.143848	0.004596	-0.989589	0.985804	-0.088171	0.142888	-0.086596	-0.996095	-0.017214
35676		0.145575	0.004953	-0.989335	0.985457	-0.089323	0.144557	-0.087655	-0.995990	-0.017884
35677		0.147597	0.005343	-0.989033	0.985066	-0.090435	0.146517	-0.088661	-0.995888	-0.018611
35678		0.149805	0.005862	-0.988698	0.984619	-0.091819	0.148643	-0.089910	-0.995758	-0.019526
35679		0.151827	0.006312	-0.988387	0.984277	-0.092287	0.150606	-0.090264	-0.995712	-0.020224
35680		0.153600	0.006666	-0.988111	0.984065	-0.091675	0.152353	-0.089570	-0.995767	-0.020641
35681		0.155398	0.006797	-0.987829	0.983877	-0.090685	0.154152	-0.088533	-0.995856	-0.020780
35682		0.156888	0.006702	-0.987594	0.983747	-0.089496	0.155670	-0.087343	-0.995965	-0.020634
35683		0.157934	0.006385	-0.987429	0.983732	-0.087712	0.156775	-0.085609	-0.996125	-0.020134
35684		0.159287	0.006246	-0.987213	0.983688	-0.085666	0.158176	-0.083583	-0.996304	-0.019789
35685		0.160879	0.006113	-0.986955	0.983600	-0.083605	0.159814	-0.081537	-0.996480	-0.019463
35686		0.163332	0.005995	-0.986553	0.983454	-0.080413	0.162330	-0.078358	-0.996744	-0.019030
35687		0.168500	0.006229	-0.985682	0.982884	-0.076623	0.167537	-0.074482	-0.997041	-0.019033
35688		0.179218	0.007655	-0.983780	0.981308	-0.072653	0.178202	-0.070110	-0.997328	-0.020533
35689		0.197820	0.010413	-0.980183	0.978291	-0.065103	0.196746	-0.061764	-0.997824	-0.023065
35691		0.254395	0.016084	-0.966967	0.965089	-0.068667	0.252759	-0.062334	-0.997510	-0.032991
35692		0.287814	0.015930	-0.957554	0.954293	-0.088873	0.285355	-0.080555	-0.995916	-0.040781
35693		0.321822	0.011783	-0.946727	0.941585	-0.108784	0.318721	-0.099234	-0.993996	-0.046104
35694		0.355407	0.004902	-0.934699	0.927860	-0.122709	0.352163	-0.112970	-0.992431	-0.048160
35695		0.387430	-0.003635	-0.921892	0.913360	-0.134279	0.384373	-0.125188	-0.990937	-0.048704
35696		0.417170	-0.013368	-0.908730	0.897689	-0.150016	0.414307	-0.141862	-0.988593	-0.050582
35697		0.444741	-0.023708	-0.895345	0.882015	-0.162230	0.442415	-0.155741	-0.986468	-0.051239
35698		0.469666	-0.034624	-0.882165	0.867016	-0.170278	0.468283	-0.166427	-0.984788	-0.049954
35699		0.491650	-0.044923	-0.869634	0.853343	-0.174071	0.491432	-0.173455	-0.983708	-0.047247
35700		0.510068	-0.054112	-0.858430	0.841222	-0.176747	0.510985	-0.179375	-0.982768	-0.044633
35701		0.525229	-0.061720	-0.848720	0.830682	-0.179251	0.527101	-0.184667	-0.981865	-0.042878
35702		0.537576	-0.068340	-0.840441	0.821631	-0.181615	0.540313	-0.189562	-0.980992	-0.041482
35703		0.546328	-0.072258	-0.834449	0.815405	-0.181801	0.549602	-0.191417	-0.980677	-0.040403
35704		0.552684	-0.073997	-0.830100	0.811790	-0.177510	0.556316	-0.188517	-0.981333	-0.038036
35705		0.557897	-0.073766	-0.826625	0.808858	-0.174594	0.561486	-0.185742	-0.981873	-0.037739
35706		0.562260	-0.071772	-0.823840	0.806550	-0.172377	0.565476	-0.182597	-0.982413	-0.039033
35707		0.566945	-0.069162	-0.820847	0.804822	-0.165908	0.569856	-0.175597	-0.983713	-0.038398
35708		0.571413	-0.067458	-0.817885	0.803233	-0.158335	0.574236	-0.168237	-0.985078	-0.036291
35709		0.575670	-0.067093	-0.814925	0.801129	-0.153241	0.578541	-0.163696	-0.985909	-0.034466
35710		0.580033	-0.068110	-0.811741	0.798961	-0.146713	0.583212	-0.158816	-0.986831	-0.030681
35711		0.583985	-0.070309	-0.808714	0.797120	-0.138714	0.587672	-0.153499	-0.987834	-0.024962
35712		0.587948	-0.073624	-0.805542	0.794816	-0.132435	0.592223	-0.150284	-0.988454	-0.019348
35714		0.594375	-0.078808	-0.800318	0.790904	-0.122852	0.599481	-0.145564	-0.989291	-0.010691
35715		0.596577	-0.080670	-0.798491	0.789185	-0.121887	0.601939	-0.145884	-0.989260	-0.009051
35716		0.598167	-0.081692	-0.797197	0.788352	-0.118600	0.603684	-0.143863	-0.989576	-0.006541
35717		0.599154	-0.082205	-0.796402	0.788218	-0.113937	0.604757	-0.140454	-0.990081	-0.003471
35718		0.599744	-0.081708	-0.796009	0.788380	-0.109950	0.605283	-0.136978	-0.990573	-0.001525
35719		0.600282	-0.080413	-0.795736	0.788425	-0.107625	0.605643	-0.134343	-0.990934	-0.001206
35720		0.600355	-0.077936	-0.795927	0.788623	-0.107632	0.605384	-0.132849	-0.991131	-0.003155
35721		0.599944	-0.074229	-0.796591	0.789469	-0.106413	0.604496	-0.129639	-0.991547	-0.005240
35722		0.598778	-0.070296	-0.797824	0.791180	-0.102928	0.602860	-0.124497	-0.992202	-0.006014
35723		0.598476	-0.066542	-0.798373	0.791421	-0.105656	0.602071	-0.124416	-0.992174	-0.010570
35724		0.598623	-0.062768	-0.798568	0.790746	-0.112936	0.601636	-0.127950	-0.991618	-0.017973
35725		0.599914	-0.060244	-0.797793	0.788860	-0.121760	0.602391	-0.133429	-0.990730	-0.025521
35726		0.601872	-0.058775	-0.796427	0.786295	-0.130728	0.603863	-0.139607	-0.989675	-0.032467
35727		0.604576	-0.058950	-0.794363	0.783161	-0.138067	0.606297	-0.145417	-0.988667	-0.037304
35728		0.607603	-0.060268	-0.791951	0.779199	-0.147903	0.609075	-0.153840	-0.987164	-0.042906
35729		0.610875	-0.062088	-0.789289	0.774930	-0.157371	0.612142	-0.162218	-0.985586	-0.048020
35730		0.614088	-0.064232	-0.786620	0.770838	-0.165144	0.615253	-0.169424	-0.984176	-0.051901
35731		0.616593	-0.065685	-0.784537	0.767410	-0.172337	0.617561	-0.175770	-0.982845	-0.055854
35732		0.618475	-0.065905	-0.783036	0.764901	-0.177819	0.619118	-0.180042	-0.981854	-0.059566
35733		0.619794	-0.064478	-0.782111	0.763099	-0.183047	0.619818	-0.183128	-0.980987	-0.064249
35734		0.620969	-0.062306	-0.781355	0.761576	-0.187914	0.620234	-0.185472	-0.980207	-0.069238
35735		0.622209	-0.059220	-0.780608	0.759808	-0.194469	0.620382	-0.188543	-0.979119	-0.076005
35736		0.623822	-0.055919	-0.779563	0.757879	-0.200422	0.620847	-0.190959	-0.978112	-0.082648
35737		0.625667	-0.053152	-0.778277	0.756336	-0.202995	0.621892	-0.191041	-0.977736	-0.086807
35739		0.630515	-0.049659	-0.774587	0.752728	-0.204324	0.625822	-0.189344	-0.977643	-0.091449
35740		0.633234	-0.048043	-0.772468	0.750189	-0.207362	0.627868	-0.190345	-0.977084	-0.095267
35741		0.635139	-0.045318	-0.771067	0.748824	-0.208621	0.629079	-0.189369	-0.976946	-0.098569
35742		0.635191	-0.041025	-0.771265	0.749806	-0.206778	0.628517	-0.185266	-0.977527	-0.100582
35743		0.633314	-0.035176	-0.773095	0.752614	-0.204660	0.625848	-0.180237	-0.978201	-0.103140
35744		0.629753	-0.028689	-0.776266	0.756651	-0.203449	0.621359	-0.175756	-0.978665	-0.106415
35745		0.625475	-0.023669	-0.779885	0.761000	-0.202121	0.616463	-0.172222	-0.979074	-0.108410
35746		0.620857	-0.020876	-0.783645	0.764891	-0.202803	0.611402	-0.171689	-0.978997	-0.109944
35747		0.616511	-0.018451	-0.787130	0.768748	-0.201901	0.606846	-0.170120	-0.979232	-0.110290
35748		0.611976	-0.015933	-0.790716	0.773567	-0.195968	0.602653	-0.164557	-0.980481	-0.107603
35749		0.608053	-0.014048	-0.793772	0.778048	-0.188234	0.599340	-0.157835	-0.982024	-0.103526
35751		0.601857	-0.010351	-0.798537	0.783657	-0.184900	0.593038	-0.153788	-0.982703	-0.103172
35752		0.598279	-0.007049	-0.801257	0.787689	-0.178269	0.589717	-0.146997	-0.983956	-0.101102
35753		0.594477	-0.003845	-0.804103	0.792497	-0.166556	0.586693	-0.136184	-0.986024	-0.095967
35754		0.590466	-0.002342	-0.807059	0.796453	-0.159919	0.583171	-0.130430	-0.987127	-0.092561
35755		0.587280	-0.001535	-0.809383	0.799283	-0.156393	0.580248	-0.127472	-0.987694	-0.090620
35756		0.583732	0.000253	-0.811947	0.802372	-0.153301	0.576800	-0.124327	-0.988179	-0.089690
35757		0.580184	0.001952	-0.814483	0.805920	-0.146019	0.573734	-0.117810	-0.989280	-0.086291
35758		0.576839	0.003320	-0.816851	0.809145	-0.139423	0.570829	-0.111993	-0.990227	-0.083111
35759		0.573586	0.004266	-0.819134	0.811661	-0.137829	0.567636	-0.110479	-0.990447	-0.082519
35760		0.570538	0.004944	-0.821256	0.813823	-0.137770	0.564545	-0.110353	-0.990452	-0.082627
35761		0.567531	0.005843	-0.823331	0.816123	-0.136216	0.561595	-0.108870	-0.990662	-0.082075
35762		0.564366	0.006959	-0.825495	0.818689	-0.133138	0.558590	-0.106018	-0.991073	-0.080836
35763		0.561360	0.008072	-0.827532	0.821010	-0.131101	0.555657	-0.104006	-0.991336	-0.080222
35764		0.558536	0.008914	-0.829432	0.822889	-0.131765	0.552713	-0.104363	-0.991241	-0.080930
35765		0.555705	0.009569	-0.831325	0.824762	-0.132258	0.549796	-0.104689	-0.991169	-0.081389
35766		0.553290	0.010455	-0.832923	0.826629	-0.130217	0.547474	-0.102737	-0.991430	-0.080690
35767		0.551346	0.011057	-0.834204	0.828225	-0.127472	0.545705	-0.100304	-0.991781	-0.079439
35768		0.549583	0.011287	-0.835363	0.829678	-0.124597	0.544159	-0.097942	-0.992143	-0.077841
35769		0.548356	0.011193	-0.836170	0.830832	-0.120883	0.543236	-0.094998	-0.992604	-0.075587
35770		0.547644	0.011317	-0.836635	0.831438	-0.119445	0.542626	-0.093791	-0.992776	-0.074823
35771		0.547639	0.011937	-0.836629	0.831294	-0.121391	0.542415	-0.095084	-0.992533	-0.076402
35772		0.547616	0.013724	-0.836617	0.830905	-0.126694	0.541799	-0.098559	-0.991847	-0.080783
35773		0.547822	0.016090	-0.836440	0.830389	-0.132020	0.541318	-0.101717	-0.991116	-0.085685
35774		0.547942	0.017740	-0.836328	0.829982	-0.136242	0.540895	-0.104348	-0.990517	-0.089377
35775		0.547884	0.018494	-0.836350	0.829717	-0.139575	0.540452	-0.106739	-0.990039	-0.091816
35776		0.548042	0.018768	-0.836240	0.829363	-0.142063	0.540347	-0.108657	-0.989680	-0.093422
35777		0.547992	0.018379	-0.836281	0.829221	-0.143389	0.540215	-0.109986	-0.989496	-0.093816
35778		0.547939	0.016789	-0.836350	0.829157	-0.143245	0.540351	-0.110731	-0.989545	-0.092411
35779		0.548095	0.013645	-0.836305	0.828889	-0.142696	0.540907	-0.111956	-0.989673	-0.089521
35780		0.548206	0.010335	-0.836280	0.828635	-0.142160	0.541437	-0.113290	-0.989790	-0.086497
35781		0.548188	0.007920	-0.836318	0.828556	-0.141388	0.541761	-0.113955	-0.989923	-0.084070
35782		0.548309	0.006253	-0.836252	0.828495	-0.140147	0.542175	-0.113808	-0.990111	-0.082024
35783		0.548575	0.005560	-0.836083	0.828421	-0.138843	0.542624	-0.113067	-0.990299	-0.080772
35784		0.548802	0.006159	-0.835930	0.828423	-0.137912	0.542858	-0.111941	-0.990425	-0.080788
35785		0.548695	0.008794	-0.835976	0.828658	-0.138157	0.542438	-0.110725	-0.990371	-0.083093
35786		0.548571	0.012682	-0.836008	0.829222	-0.136283	0.542050	-0.107060	-0.990589	-0.085277
35787		0.548080	0.016513	-0.836263	0.830331	-0.131217	0.541601	-0.100788	-0.991216	-0.085629
35788		0.547135	0.020576	-0.836791	0.831554	-0.127674	0.540572	-0.095713	-0.991603	-0.086965
35789		0.545630	0.024078	-0.837680	0.833111	-0.123694	0.539098	-0.090635	-0.992028	-0.087551
35790		0.542891	0.026084	-0.839398	0.835465	-0.118239	0.536673	-0.085251	-0.992643	-0.085983
35791		0.540735	0.026213	-0.840784	0.837065	-0.115667	0.534737	-0.083234	-0.992942	-0.084487
35792		0.541123	0.024274	-0.840593	0.836373	-0.119609	0.534952	-0.087557	-0.992524	-0.085025
35794		0.547868	0.018582	-0.836358	0.830779	-0.129457	0.541338	-0.098213	-0.991411	-0.086363
35795		0.551272	0.017078	-0.834151	0.828379	-0.130353	0.544790	-0.099430	-0.991321	-0.086007
35796		0.554779	0.015181	-0.831859	0.825734	-0.132498	0.548276	-0.101896	-0.991067	-0.086042
35797		0.558172	0.013392	-0.829617	0.822953	-0.136426	0.551486	-0.105796	-0.990560	-0.087171
35798		0.561496	0.011314	-0.827402	0.820131	-0.140568	0.554640	-0.110031	-0.990006	-0.088207
35799		0.564483	0.008454	-0.825402	0.817459	-0.144485	0.557571	-0.114544	-0.989471	-0.088470
35800		0.566923	0.005388	-0.823753	0.815198	-0.147559	0.560070	-0.118535	-0.989039	-0.088047
35801		0.569146	0.002744	-0.822232	0.813152	-0.150117	0.562360	-0.121888	-0.988664	-0.087670
35802		0.571555	0.001694	-0.820562	0.811229	-0.151571	0.564742	-0.123417	-0.988445	-0.088006
35803		0.574589	0.002427	-0.818439	0.808907	-0.153887	0.567440	-0.124570	-0.988085	-0.090385
35804		0.578905	0.005353	-0.815377	0.804753	-0.164779	0.570281	-0.131305	-0.986316	-0.099699
35805		0.582151	0.006830	-0.813052	0.801185	-0.175243	0.572182	-0.138574	-0.984501	-0.107490
35806		0.587454	-0.000778	-0.809257	0.797940	-0.166105	0.579398	-0.134872	-0.986108	-0.096959
35807		0.592185	-0.006136	-0.805779	0.794415	-0.163068	0.585076	-0.134987	-0.986596	-0.091692
35808		0.596053	-0.011574	-0.802862	0.790425	-0.167429	0.589233	-0.141242	-0.985816	-0.090648
35809		0.598795	-0.015170	-0.800759	0.787854	-0.168586	0.592339	-0.143982	-0.985570	-0.088997
35810		0.598537	-0.016071	-0.800934	0.788106	-0.167503	0.592311	-0.143678	-0.985741	-0.087592
35811		0.596030	-0.014827	-0.802825	0.790475	-0.164806	0.589905	-0.141057	-0.986215	-0.086509
35812		0.591167	-0.011114	-0.806473	0.794543	-0.163862	0.584680	-0.138649	-0.986421	-0.088039
35813		0.584087	-0.005361	-0.811673	0.800890	-0.158786	0.577376	-0.131977	-0.987299	-0.088451
35814		0.574312	0.001988	-0.818634	0.809729	-0.148491	0.567705	-0.120431	-0.988912	-0.086890
35815		0.562640	0.009388	-0.826649	0.819523	-0.137825	0.556225	-0.108711	-0.990412	-0.085240
35816		0.549073	0.016683	-0.835608	0.830061	-0.127585	0.542882	-0.097554	-0.991687	-0.083902
35817		0.532751	0.023345	-0.845950	0.842028	-0.114607	0.527118	-0.084646	-0.993137	-0.080715
35818		0.513589	0.029390	-0.857533	0.855183	-0.098975	0.508789	-0.069920	-0.994656	-0.075966
35819		0.493629	0.034675	-0.868981	0.867879	-0.083773	0.489661	-0.055818	-0.995881	-0.071446
35820		0.471942	0.039807	-0.880731	0.880404	-0.073941	0.468425	-0.046475	-0.996468	-0.069942
35821		0.448148	0.043917	-0.892880	0.893100	-0.065773	0.445024	-0.039183	-0.996868	-0.068699
35822		0.421997	0.046917	-0.905382	0.906033	-0.057043	0.419345	-0.031971	-0.997269	-0.066580
35823		0.393890	0.047879	-0.917910	0.918867	-0.045613	0.391922	-0.023104	-0.997811	-0.061961
35824		0.363953	0.047489	-0.930206	0.931293	-0.034874	0.362598	-0.015220	-0.998263	-0.056918
35825		0.332417	0.045765	-0.942021	0.943055	-0.028971	0.331374	-0.012126	-0.998532	-0.052790
35826		0.298100	0.044722	-0.953486	0.954488	-0.023880	0.297293	-0.009474	-0.998714	-0.049805
35827		0.262306	0.042989	-0.964027	0.964979	-0.015028	0.261895	-0.003229	-0.998962	-0.045426
35828		0.227558	0.038711	-0.972995	0.973764	-0.007756	0.227430	0.001257	-0.999220	-0.039461
35829		0.193942	0.034250	-0.980415	0.981013	-0.007065	0.193814	-0.000288	-0.999388	-0.034970
35830		0.161040	0.028733	-0.986530	0.986947	-0.005760	0.160940	-0.001058	-0.999571	-0.029285
35831		0.132322	0.025040	-0.990890	0.991165	0.005874	0.132507	0.009138	-0.999669	-0.024042
35832		0.112295	0.026919	-0.993310	0.993165	0.028990	0.113064	0.031840	-0.999217	-0.023480
35833		0.105401	0.027280	-0.994056	0.993339	0.043910	0.106530	0.046555	-0.998663	-0.022471
35834		0.102574	0.026894	-0.994362	0.994398	0.022890	0.103197	0.025536	-0.999376	-0.024395
35835		0.106933	0.025316	-0.993944	0.994121	-0.019805	0.106448	-0.016990	-0.999483	-0.027285
35836		0.110405	0.026357	-0.993537	0.993547	-0.029070	0.109635	-0.025993	-0.999230	-0.029396
35837		0.113004	0.028914	-0.993174	0.993360	-0.024995	0.112297	-0.021577	-0.999269	-0.031546
35838		0.117349	0.029353	-0.992657	0.992603	-0.034775	0.116314	-0.031106	-0.998964	-0.033216
35839		0.122231	0.030651	-0.992028	0.992065	-0.033416	0.121203	-0.029435	-0.998971	-0.034492
35840		0.126818	0.032035	-0.991409	0.991689	-0.025962	0.126015	-0.021702	-0.999150	-0.035061
35841		0.132423	0.033124	-0.990640	0.990898	-0.028829	0.131493	-0.024204	-0.999035	-0.036640
35842		0.137611	0.034395	-0.989889	0.990029	-0.035128	0.136410	-0.030081	-0.998791	-0.038886
35843		0.142679	0.036059	-0.989112	0.989245	-0.037714	0.141324	-0.032208	-0.998638	-0.041052
35844		0.146809	0.038211	-0.988426	0.988684	-0.036831	0.145424	-0.030848	-0.998591	-0.043185
35845		0.149847	0.040367	-0.987885	0.988152	-0.039657	0.148268	-0.033191	-0.998398	-0.045832
35846		0.150498	0.042034	-0.987716	0.987973	-0.042258	0.148739	-0.035486	-0.998222	-0.047888
35847		0.148622	0.044353	-0.987899	0.988362	-0.039414	0.146922	-0.032420	-0.998238	-0.049695
35848		0.145752	0.047108	-0.988199	0.988862	-0.037377	0.144068	-0.030149	-0.998190	-0.052031
35849		0.143343	0.050111	-0.988404	0.989232	-0.037085	0.141582	-0.029560	-0.998055	-0.054888
35850		0.142158	0.053429	-0.988401	0.989491	-0.034350	0.140458	-0.026447	-0.997981	-0.057751
35851		0.141959	0.056536	-0.988257	0.989579	-0.032402	0.140295	-0.024090	-0.997875	-0.060546
35852		0.141649	0.058958	-0.988160	0.989540	-0.035958	0.139702	-0.027296	-0.997613	-0.063434
35853		0.140933	0.061664	-0.988097	0.989540	-0.039831	0.138653	-0.030808	-0.997302	-0.066632
35854		0.139522	0.064724	-0.988101	0.989722	-0.040732	0.137083	-0.031374	-0.997072	-0.069742
35855		0.138069	0.067533	-0.988117	0.989879	-0.042464	0.135413	-0.032815	-0.996813	-0.072712
35856		0.136765	0.070299	-0.988106	0.989994	-0.044680	0.133848	-0.034739	-0.996525	-0.075707
35857		0.136114	0.072840	-0.988012	0.990094	-0.044680	0.133107	-0.034449	-0.996342	-0.078200
35858		0.136565	0.074760	-0.987806	0.990031	-0.045013	0.133466	-0.034486	-0.996185	-0.080162
35859		0.138018	0.076112	-0.987501	0.989801	-0.046110	0.134785	-0.035274	-0.996033	-0.081700
35860		0.139941	0.077267	-0.987140	0.989499	-0.047328	0.136571	-0.036166	-0.995886	-0.083079
35861		0.141635	0.078299	-0.986818	0.989231	-0.048349	0.138145	-0.036895	-0.995757	-0.084303
35862		0.142439	0.078942	-0.986651	0.989074	-0.049623	0.138818	-0.038002	-0.995643	-0.085148
35863		0.142349	0.080008	-0.986578	0.989131	-0.048594	0.138776	-0.036839	-0.995609	-0.086056
35864		0.141834	0.081012	-0.986570	0.989255	-0.047313	0.138335	-0.035470	-0.995590	-0.086852
35865		0.141481	0.082053	-0.986535	0.989323	-0.046931	0.137978	-0.034978	-0.995522	-0.087817
35866		0.141452	0.082993	-0.986460	0.989323	-0.047187	0.137893	-0.035104	-0.995432	-0.088782
35867		0.141227	0.083664	-0.986436	0.989367	-0.046895	0.137669	-0.034741	-0.995390	-0.089397
35869		0.140399	0.084302	-0.986499	0.989475	-0.047195	0.136789	-0.035026	-0.995322	-0.090041
35870		0.140222	0.084528	-0.986505	0.989439	-0.048902	0.136449	-0.036708	-0.995220	-0.090493
35871		0.139911	0.084898	-0.986518	0.989408	-0.050909	0.135940	-0.038682	-0.995088	-0.091121
35872		0.139449	0.085185	-0.986558	0.989399	-0.052787	0.135292	-0.040553	-0.994966	-0.091643
35873		0.139154	0.085526	-0.986571	0.989337	-0.055271	0.134752	-0.043004	-0.994802	-0.092306
35874		0.139656	0.085496	-0.986502	0.989047	-0.060110	0.134806	-0.047774	-0.994524	-0.092954
35875		0.141025	0.085439	-0.986312	0.988551	-0.066149	0.135614	-0.053657	-0.994145	-0.093789
35876		0.143141	0.085031	-0.986043	0.988070	-0.069469	0.137444	-0.056812	-0.993954	-0.093961
35877		0.145899	0.084029	-0.985724	0.987609	-0.070589	0.140161	-0.057803	-0.993960	-0.093287
35878		0.149225	0.082683	-0.985340	0.986982	-0.072913	0.143355	-0.059992	-0.993905	-0.092487
35879		0.152672	0.080994	-0.984952	0.986265	-0.076043	0.146622	-0.063023	-0.993810	-0.091492
35880		0.155887	0.078960	-0.984614	0.985573	-0.078959	0.149707	-0.065923	-0.993746	-0.090129
35881		0.158732	0.077380	-0.984285	0.985228	-0.077310	0.152806	-0.064271	-0.994000	-0.088509
35882		0.161608	0.075759	-0.983943	0.984858	-0.075777	0.155924	-0.062747	-0.994243	-0.086858
35883		0.164234	0.074073	-0.983636	0.984424	-0.075731	0.158662	-0.062739	-0.994373	-0.085357
35884		0.166607	0.072540	-0.983351	0.984141	-0.073827	0.161295	-0.060898	-0.994629	-0.083690
35885		0.169085	0.071185	-0.983027	0.983944	-0.070015	0.164172	-0.057140	-0.995003	-0.081881
35886		0.171949	0.068932	-0.982691	0.983758	-0.064184	0.167633	-0.051517	-0.995555	-0.078849
35887		0.173759	0.066483	-0.982541	0.983805	-0.056286	0.170174	-0.043990	-0.996199	-0.075187
35889		0.177352	0.063986	-0.982065	0.983524	-0.047050	0.174550	-0.035038	-0.996841	-0.071276
35890		0.180957	0.062668	-0.981492	0.982916	-0.045640	0.178305	-0.033622	-0.996990	-0.069856
35891		0.187404	0.061596	-0.980350	0.981841	-0.041682	0.185070	-0.029464	-0.997230	-0.068289
35892		0.194514	0.059770	-0.979077	0.980603	-0.036393	0.192595	-0.024120	-0.997549	-0.065690
35893		0.203213	0.056705	-0.977491	0.978737	-0.040194	0.201140	-0.027883	-0.997582	-0.063667
35894		0.212483	0.054063	-0.975668	0.976677	-0.043276	0.210305	-0.030854	-0.997599	-0.061998
35895		0.222966	0.052669	-0.973402	0.974435	-0.040319	0.221021	-0.027606	-0.997798	-0.060312
35896		0.235576	0.052448	-0.970440	0.971630	-0.034234	0.234015	-0.020949	-0.998037	-0.059025
35897		0.249625	0.052032	-0.966944	0.968199	-0.030638	0.248300	-0.016706	-0.998175	-0.058025
35898		0.263153	0.052692	-0.963314	0.964709	-0.024023	0.262220	-0.009325	-0.998322	-0.057154
35899		0.277724	0.053791	-0.959154	0.960661	-0.015778	0.277275	-0.000219	-0.998428	-0.056057
35900		0.293461	0.055571	-0.954354	0.955961	-0.012546	0.293225	0.004322	-0.998376	-0.056805
35901		0.309573	0.057156	-0.949157	0.950868	-0.014646	0.309249	0.003774	-0.998258	-0.058881
35902		0.325827	0.058555	-0.943614	0.945390	-0.011118	0.325750	0.008583	-0.998222	-0.058980
35903		0.342307	0.058773	-0.937748	0.939482	-0.006380	0.342539	0.014149	-0.998251	-0.057400
35904		0.359827	0.058277	-0.931197	0.932901	-0.006595	0.360073	0.014843	-0.998279	-0.056739
35905		0.377329	0.055294	-0.924427	0.926070	-0.017980	0.376924	0.004220	-0.998308	-0.057990
35906		0.394628	0.050731	-0.917439	0.918776	-0.033637	0.393343	-0.010905	-0.998146	-0.059884
35907		0.411385	0.047160	-0.910241	0.911197	-0.045341	0.409468	-0.021960	-0.997858	-0.061624
35908		0.428192	0.044100	-0.902611	0.903333	-0.048879	0.426147	-0.025326	-0.997831	-0.060766
35909		0.445039	0.042479	-0.894503	0.895029	-0.053887	0.442741	-0.029395	-0.997643	-0.062002
35910		0.459866	0.041833	-0.887002	0.887191	-0.063973	0.456947	-0.037629	-0.997074	-0.066533
35911		0.472493	0.040917	-0.880384	0.880169	-0.073268	0.468972	-0.045315	-0.996473	-0.070633
35912		0.482176	0.039112	-0.875201	0.874436	-0.082562	0.478064	-0.053561	-0.995818	-0.074010
35913		0.489027	0.035249	-0.871556	0.869728	-0.095921	0.484121	-0.066536	-0.994765	-0.077565
35914		0.494563	0.030752	-0.868598	0.865659	-0.106809	0.489108	-0.077733	-0.993804	-0.079444
35915		0.498886	0.026462	-0.866264	0.862926	-0.107952	0.493666	-0.080452	-0.993804	-0.076691
35916		0.504405	0.021786	-0.863192	0.859043	-0.113722	0.499111	-0.087290	-0.993274	-0.076077
35917		0.509466	0.018638	-0.860289	0.854338	-0.130302	0.503119	-0.102721	-0.991299	-0.082307
35919		0.519388	0.016838	-0.854372	0.847104	-0.141740	0.512176	-0.112474	-0.989761	-0.087881
35920		0.524422	0.018028	-0.851268	0.844578	-0.137860	0.517381	-0.108028	-0.990288	-0.087523
35921		0.528316	0.021466	-0.848777	0.842600	-0.136227	0.521026	-0.104442	-0.990445	-0.090058
35922		0.530122	0.025324	-0.847543	0.842481	-0.128779	0.523108	-0.095899	-0.991350	-0.089604
35923		0.531333	0.029888	-0.846636	0.842885	-0.118958	0.524780	-0.085030	-0.992449	-0.088398
35924		0.532899	0.033574	-0.845513	0.842205	-0.117772	0.526137	-0.081913	-0.992473	-0.091037
35925		0.535102	0.037215	-0.843967	0.839817	-0.131643	0.526666	-0.091503	-0.990598	-0.101696
35926		0.536489	0.040141	-0.842952	0.838173	-0.141591	0.526705	-0.098212	-0.989111	-0.109607
35927		0.538969	0.041657	-0.841295	0.836464	-0.144096	0.528739	-0.099202	-0.988687	-0.112508
35928		0.542437	0.041983	-0.839047	0.834522	-0.141792	0.532417	-0.096617	-0.989006	-0.111949
35929		0.546342	0.042456	-0.836486	0.832161	-0.140755	0.536373	-0.094967	-0.989134	-0.112230
35930		0.548521	0.043498	-0.835005	0.830703	-0.142021	0.538297	-0.095173	-0.988907	-0.114036
35931		0.547965	0.046004	-0.835235	0.831153	-0.142675	0.537428	-0.094443	-0.988700	-0.116417
35932		0.544892	0.049674	-0.837034	0.833401	-0.142072	0.534096	-0.092388	-0.988609	-0.118812
35933		0.540259	0.054690	-0.839720	0.836737	-0.140925	0.529161	-0.089398	-0.988509	-0.121897
35934		0.535507	0.059881	-0.842405	0.839976	-0.141219	0.523925	-0.087591	-0.988166	-0.125923
35935		0.530908	0.065590	-0.844887	0.843010	-0.142570	0.518660	-0.086436	-0.987609	-0.130984
35936		0.528030	0.071458	-0.846214	0.845088	-0.142456	0.515298	-0.083726	-0.987218	-0.135610
35937		0.526649	0.076226	-0.846658	0.846441	-0.139120	0.513988	-0.078607	-0.987337	-0.137788
35938		0.526592	0.080053	-0.846340	0.846715	-0.138376	0.513737	-0.075987	-0.987139	-0.140649
35939		0.527958	0.082648	-0.845239	0.845707	-0.142232	0.514343	-0.077710	-0.986377	-0.144989
35940		0.529520	0.084549	-0.844074	0.844492	-0.146680	0.515090	-0.080259	-0.985564	-0.149071
35941		0.530344	0.086655	-0.843343	0.844038	-0.147361	0.515640	-0.079593	-0.985280	-0.151292
35942		0.530496	0.088137	-0.843093	0.844182	-0.145277	0.515995	-0.077004	-0.985458	-0.151472
35943		0.530342	0.088034	-0.843201	0.844412	-0.143466	0.516126	-0.075533	-0.985732	-0.150423
35944		0.529644	0.086901	-0.843757	0.844714	-0.144390	0.515374	-0.077043	-0.985698	-0.149882
35945		0.528595	0.084916	-0.844616	0.845097	-0.146407	0.514176	-0.079996	-0.985573	-0.149152
35946		0.527406	0.082692	-0.845580	0.845628	-0.147376	0.513024	-0.082195	-0.985618	-0.147654
35947		0.526366	0.080448	-0.846444	0.846108	-0.147803	0.512109	-0.083909	-0.985739	-0.145866
35948		0.525421	0.077929	-0.847266	0.846473	-0.148665	0.511255	-0.086117	-0.985812	-0.144076
35949		0.525013	0.074654	-0.847814	0.846556	-0.148543	0.511154	-0.087777	-0.986084	-0.141185
35950		0.524610	0.071102	-0.848369	0.846703	-0.147472	0.511220	-0.088762	-0.986507	-0.137567
35951		0.523972	0.067321	-0.849071	0.846977	-0.146418	0.511070	-0.089913	-0.986929	-0.133739
35952		0.524240	0.062839	-0.849249	0.846652	-0.145487	0.511872	-0.091389	-0.987362	-0.129473
35953		0.524103	0.059934	-0.849543	0.846730	-0.143790	0.512224	-0.091456	-0.987792	-0.126109
35954		0.524122	0.058564	-0.849627	0.846728	-0.142869	0.512485	-0.091372	-0.988007	-0.124468
35955		0.524719	0.055841	-0.849442	0.846208	-0.142931	0.513325	-0.092746	-0.988156	-0.122252
35956		0.525295	0.053080	-0.849263	0.845611	-0.143882	0.514043	-0.094909	-0.988170	-0.120465
35957		0.525778	0.050856	-0.849100	0.845172	-0.144052	0.514717	-0.096138	-0.988263	-0.118721
35958		0.525972	0.048310	-0.849129	0.845099	-0.142038	0.515396	-0.095710	-0.988682	-0.115534
35959		0.526060	0.045601	-0.849224	0.844907	-0.141817	0.515770	-0.096915	-0.988842	-0.113133
35960		0.526192	0.043236	-0.849266	0.844376	-0.144901	0.515785	-0.100759	-0.988501	-0.112753
35961		0.525398	0.041462	-0.849846	0.844572	-0.146591	0.514985	-0.103228	-0.988328	-0.112036
35962		0.523903	0.040113	-0.850833	0.845571	-0.144863	0.513833	-0.102643	-0.988638	-0.109813
35963		0.522720	0.039456	-0.851591	0.846488	-0.142486	0.512987	-0.101099	-0.989010	-0.107880
35964		0.522404	0.038329	-0.851836	0.846371	-0.144782	0.512537	-0.103686	-0.988721	-0.108075
35965		0.523037	0.036474	-0.851529	0.845254	-0.150485	0.512737	-0.109441	-0.987939	-0.109539
35966		0.524550	0.034190	-0.850693	0.843840	-0.153559	0.514153	-0.113053	-0.987548	-0.109400
35967		0.526963	0.031371	-0.849309	0.842052	-0.154663	0.516748	-0.115146	-0.987469	-0.107918
35968		0.530370	0.027812	-0.847310	0.839464	-0.156763	0.520313	-0.118356	-0.987245	-0.106489
35969		0.534898	0.024848	-0.844551	0.836127	-0.159372	0.524873	-0.121556	-0.986906	-0.106024
35970		0.540377	0.023859	-0.841085	0.832908	-0.157022	0.530668	-0.119408	-0.987307	-0.104724
35971		0.546164	0.025260	-0.837298	0.830198	-0.149605	0.537019	-0.111699	-0.988423	-0.102680
35972		0.551856	0.029627	-0.833413	0.827326	-0.145060	0.542668	-0.104817	-0.988979	-0.104563
35973		0.557018	0.036166	-0.829712	0.824113	-0.147737	0.546820	-0.102803	-0.988365	-0.112097
35974		0.561069	0.043721	-0.826614	0.821607	-0.151032	0.549682	-0.100813	-0.987562	-0.120661
35975		0.562373	0.050283	-0.825353	0.821189	-0.150907	0.550342	-0.096879	-0.987268	-0.126157
35976		0.564125	0.052763	-0.824002	0.820435	-0.148223	0.552192	-0.093000	-0.987545	-0.126905
35977		0.566105	0.053569	-0.822591	0.819095	-0.148869	0.554004	-0.092781	-0.987405	-0.128154
35978		0.568412	0.052699	-0.821055	0.817404	-0.149691	0.556276	-0.093590	-0.987327	-0.128162
35979		0.570247	0.051262	-0.819872	0.816278	-0.147428	0.558529	-0.092241	-0.987744	-0.125914
35980		0.571333	0.050452	-0.819166	0.815556	-0.146667	0.559783	-0.091902	-0.987899	-0.124942
35981		0.570600	0.049727	-0.819721	0.815806	-0.148838	0.558846	-0.094216	-0.987610	-0.125495
35982		0.567414	0.049449	-0.821947	0.818015	-0.148171	0.555785	-0.094306	-0.987725	-0.124524
35983		0.561597	0.049745	-0.825914	0.822383	-0.143439	0.550556	-0.091081	-0.988408	-0.121464
35984		0.552821	0.050957	-0.831741	0.828694	-0.138416	0.542316	-0.087492	-0.989062	-0.118747
35985		0.541260	0.053012	-0.839183	0.836833	-0.131461	0.531440	-0.082147	-0.989903	-0.115517
35986		0.526673	0.056147	-0.848212	0.846734	-0.122940	0.517617	-0.075216	-0.990825	-0.112291
35987		0.510420	0.059454	-0.857868	0.857300	-0.113074	0.502246	-0.067142	-0.991806	-0.108685
35988		0.491457	0.062854	-0.868631	0.868913	-0.102750	0.484182	-0.058819	-0.992719	-0.105112
35989		0.471070	0.066017	-0.879622	0.880718	-0.090917	0.464833	-0.049286	-0.993668	-0.100971
35990		0.449750	0.068540	-0.890521	0.892201	-0.080546	0.444399	-0.041269	-0.994392	-0.097377
35991		0.426839	0.070368	-0.901586	0.903610	-0.072910	0.422107	-0.036032	-0.994853	-0.094705
35992		0.403964	0.070993	-0.912016	0.914257	-0.064867	0.399908	-0.030769	-0.995365	-0.091110
35993		0.381295	0.070753	-0.921742	0.924078	-0.057596	0.377840	-0.026355	-0.995830	-0.087343
35994		0.359906	0.068570	-0.930466	0.932576	-0.056100	0.356588	-0.027748	-0.996068	-0.084138
35995		0.340113	0.065336	-0.938112	0.939735	-0.060682	0.336475	-0.034943	-0.996017	-0.082037
35996		0.320584	0.062168	-0.945178	0.946384	-0.062936	0.316853	-0.039788	-0.996079	-0.079011
35997		0.301858	0.058858	-0.951534	0.952553	-0.059495	0.298501	-0.039042	-0.996492	-0.074025
35998		0.283574	0.055490	-0.957344	0.958155	-0.057053	0.280507	-0.039054	-0.996828	-0.069347
35999		0.266822	0.053096	-0.962282	0.962900	-0.056507	0.263875	-0.040365	-0.996989	-0.066204
36000		0.251925	0.051618	-0.966369	0.966771	-0.058265	0.248918	-0.043457	-0.996966	-0.064581
36001		0.237741	0.050612	-0.970009	0.970357	-0.057028	0.234850	-0.043431	-0.997089	-0.062670
36002		0.224218	0.050161	-0.973247	0.973434	-0.059066	0.221217	-0.046390	-0.996993	-0.062073
36003		0.212450	0.050180	-0.975883	0.975957	-0.060676	0.209347	-0.048707	-0.996895	-0.061864
36004		0.201982	0.050903	-0.978065	0.978321	-0.057122	0.199062	-0.045736	-0.997069	-0.061337
36005		0.192529	0.050769	-0.979977	0.980197	-0.057097	0.189614	-0.046327	-0.997077	-0.060757
36006		0.183530	0.049542	-0.981765	0.981621	-0.062396	0.180354	-0.052323	-0.996821	-0.060083
36007		0.172926	0.048083	-0.983760	0.983353	-0.065009	0.169677	-0.055795	-0.996726	-0.058525
36008		0.161728	0.047448	-0.985694	0.985263	-0.064123	0.158571	-0.055681	-0.996813	-0.057119
36009		0.150532	0.047950	-0.987442	0.986823	-0.067229	0.147173	-0.059328	-0.996585	-0.057439
36011		0.128498	0.051600	-0.990366	0.989518	-0.073026	0.124583	-0.065894	-0.995994	-0.060443
36012		0.118858	0.053628	-0.991462	0.990512	-0.075780	0.114645	-0.068984	-0.995681	-0.062127
36013		0.110743	0.054923	-0.992330	0.991092	-0.080428	0.106153	-0.073981	-0.995246	-0.063340
36014		0.105779	0.055809	-0.992822	0.991430	-0.082892	0.100971	-0.076662	-0.994995	-0.064099
36015		0.104727	0.056219	-0.992911	0.991108	-0.088298	0.099537	-0.082076	-0.994506	-0.064967
36016		0.105082	0.056081	-0.992881	0.990690	-0.092799	0.099608	-0.086552	-0.994104	-0.065311
36017		0.105199	0.056385	-0.992851	0.990952	-0.089629	0.099908	-0.083355	-0.994378	-0.065303
36018		0.104518	0.056748	-0.992903	0.991406	-0.084923	0.099507	-0.078673	-0.994770	-0.065136
36019		0.102649	0.057034	-0.993081	0.991943	-0.080378	0.097916	-0.074237	-0.995131	-0.064825
36020		0.099703	0.057617	-0.993348	0.992438	-0.077590	0.095111	-0.071593	-0.995319	-0.064918
36021		0.095385	0.058424	-0.993724	0.992939	-0.076307	0.090823	-0.070521	-0.995371	-0.065290
36022		0.090436	0.059352	-0.994132	0.993391	-0.076225	0.085817	-0.070684	-0.995323	-0.065854
36023		0.085785	0.060223	-0.994492	0.993812	-0.075859	0.081133	-0.070555	-0.995298	-0.066358
36024		0.082170	0.060684	-0.994769	0.994012	-0.077130	0.077403	-0.072030	-0.995173	-0.066658
36025		0.080744	0.060289	-0.994910	0.993887	-0.080267	0.075797	-0.075289	-0.994948	-0.066401
36026		0.081548	0.058556	-0.994948	0.993582	-0.083290	0.076535	-0.078388	-0.994803	-0.064972
36027		0.084209	0.055655	-0.994893	0.993363	-0.083194	0.079426	-0.078349	-0.994978	-0.062291
36028		0.087783	0.053015	-0.994728	0.993387	-0.078844	0.083463	-0.074004	-0.995476	-0.059585
36029		0.092791	0.049789	-0.994440	0.993341	-0.073129	0.089027	-0.068290	-0.996079	-0.056243
36030		0.100380	0.045862	-0.993892	0.992849	-0.069483	0.097068	-0.064607	-0.996528	-0.052509
36031		0.110682	0.040832	-0.993017	0.991700	-0.070319	0.107644	-0.065433	-0.996688	-0.048276
36032		0.125591	0.036054	-0.991427	0.989698	-0.073796	0.122688	-0.068739	-0.996621	-0.044951
36033		0.145562	0.033909	-0.988768	0.986908	-0.075135	0.142712	-0.069452	-0.996597	-0.044402
36034		0.169144	0.033974	-0.985006	0.983382	-0.072701	0.166358	-0.065959	-0.996775	-0.045706
36035		0.194985	0.034369	-0.980204	0.978335	-0.077718	0.191888	-0.069584	-0.996383	-0.048778
36036		0.220337	0.036344	-0.974747	0.972357	-0.087364	0.216539	-0.077288	-0.995513	-0.054589
36037		0.243271	0.040827	-0.969099	0.967250	-0.084828	0.239233	-0.072440	-0.995559	-0.060126
36038		0.266326	0.045651	-0.962801	0.961990	-0.075158	0.262538	-0.060377	-0.996126	-0.063932
36039		0.288491	0.048813	-0.956237	0.955805	-0.073781	0.284595	-0.056661	-0.996079	-0.067941
36040		0.310352	0.050799	-0.949264	0.948119	-0.088960	0.305217	-0.068942	-0.994739	-0.075772
36041		0.332495	0.053547	-0.941584	0.939921	-0.100790	0.326176	-0.077437	-0.993466	-0.083842
36042		0.349845	0.059019	-0.934947	0.933682	-0.103424	0.342843	-0.076462	-0.992885	-0.091287
36043		0.365401	0.063689	-0.928669	0.927767	-0.106047	0.357773	-0.075696	-0.992319	-0.097839
36044		0.378003	0.067395	-0.923348	0.922497	-0.111648	0.369505	-0.078187	-0.991460	-0.104375
36045		0.388550	0.068386	-0.918886	0.917824	-0.116838	0.379406	-0.081415	-0.990794	-0.108163
36046		0.398872	0.066386	-0.914601	0.913182	-0.119754	0.389561	-0.083666	-0.990582	-0.108389
36047		0.409305	0.063876	-0.910159	0.908551	-0.120043	0.400157	-0.083698	-0.990712	-0.107169
36048		0.420882	0.062799	-0.904939	0.903163	-0.122037	0.411587	-0.084588	-0.990537	-0.108081
36049		0.433460	0.063344	-0.898944	0.896634	-0.130305	0.423164	-0.090332	-0.989448	-0.113278
36050		0.445832	0.066685	-0.892629	0.889869	-0.140845	0.433931	-0.096785	-0.987783	-0.122134
36051		0.456499	0.068991	-0.887045	0.884495	-0.143125	0.444055	-0.096322	-0.987297	-0.126358
36052		0.466155	0.070024	-0.881927	0.879614	-0.143456	0.453542	-0.094759	-0.987176	-0.128467
36053		0.475240	0.069219	-0.877129	0.874511	-0.146874	0.462231	-0.096832	-0.986730	-0.130333
36054		0.483877	0.069122	-0.872402	0.869261	-0.153279	0.469990	-0.101234	-0.985762	-0.134253
36055		0.492951	0.069240	-0.867298	0.864107	-0.155346	0.478735	-0.101584	-0.985431	-0.136409
36056		0.499906	0.070510	-0.863205	0.860183	-0.156530	0.485370	-0.100894	-0.985153	-0.138902
36057		0.506886	0.072470	-0.858961	0.856631	-0.153521	0.492559	-0.096172	-0.985484	-0.139898
36058		0.513739	0.072724	-0.854859	0.853045	-0.149660	0.499917	-0.091582	-0.986059	-0.138923
36059		0.520813	0.074383	-0.850424	0.848318	-0.156477	0.505837	-0.095446	-0.984877	-0.144596
36060		0.526405	0.076026	-0.846828	0.844609	-0.161129	0.510561	-0.097633	-0.984001	-0.149032
36061		0.531054	0.078133	-0.843728	0.841791	-0.162397	0.514797	-0.096796	-0.983627	-0.152013
36062		0.534509	0.080344	-0.841335	0.839704	-0.163445	0.517865	-0.095905	-0.983275	-0.154828
36063		0.537673	0.081057	-0.839248	0.837406	-0.167361	0.520329	-0.098282	-0.982558	-0.157863
36064		0.540426	0.080316	-0.837550	0.835233	-0.171430	0.522492	-0.101617	-0.981917	-0.159728
36065		0.543366	0.077123	-0.835946	0.832876	-0.174335	0.525286	-0.105223	-0.981661	-0.158962
36066		0.545066	0.072571	-0.835246	0.831297	-0.176121	0.527187	-0.108846	-0.981690	-0.156326
36067		0.545134	0.068136	-0.835575	0.830968	-0.175882	0.527786	-0.111002	-0.982050	-0.152499
36068		0.545384	0.065051	-0.835658	0.830946	-0.172726	0.528862	-0.109936	-0.982820	-0.148256
36069		0.545533	0.064071	-0.835637	0.830985	-0.170899	0.529393	-0.108891	-0.983203	-0.146473
36070		0.545877	0.065278	-0.835319	0.830908	-0.170390	0.529679	-0.107753	-0.983212	-0.147252
36071		0.545966	0.068166	-0.835030	0.831166	-0.169321	0.529617	-0.105286	-0.983201	-0.149101
36072		0.545788	0.071636	-0.834856	0.831529	-0.169163	0.529098	-0.103324	-0.982981	-0.151894
36073		0.545023	0.074727	-0.835085	0.832148	-0.169826	0.527909	-0.102370	-0.982637	-0.154743
36074		0.543572	0.077675	-0.835761	0.833242	-0.169963	0.526137	-0.101180	-0.982384	-0.157109
36075		0.541333	0.080556	-0.836940	0.835021	-0.168091	0.523913	-0.098477	-0.982474	-0.158260
36076		0.539069	0.083379	-0.838124	0.837051	-0.163556	0.522107	-0.093548	-0.983004	-0.157961
36077		0.537034	0.085374	-0.839229	0.838611	-0.161647	0.520194	-0.091248	-0.983149	-0.158406
36078		0.535261	0.086729	-0.840222	0.839599	-0.163638	0.517973	-0.092569	-0.982701	-0.160406
36079		0.533692	0.087528	-0.841137	0.840546	-0.164319	0.516218	-0.093032	-0.982516	-0.161267
36080		0.532520	0.087745	-0.841857	0.841411	-0.162893	0.515260	-0.091921	-0.982734	-0.160574
36081		0.531715	0.087706	-0.842370	0.841824	-0.163713	0.514325	-0.092797	-0.982602	-0.160881
36082		0.530822	0.087685	-0.842935	0.842196	-0.165507	0.513141	-0.094517	-0.982303	-0.161703
36083		0.529821	0.087632	-0.843570	0.842905	-0.164428	0.512322	-0.093811	-0.982489	-0.160983
36084		0.528674	0.087579	-0.844295	0.843943	-0.160764	0.511777	-0.090911	-0.983100	-0.158903
36085		0.528101	0.087252	-0.844687	0.844581	-0.157370	0.511779	-0.088275	-0.983678	-0.156798
36087		0.529716	0.084953	-0.843910	0.843275	-0.159551	0.513255	-0.091044	-0.983528	-0.156155
36088		0.531472	0.082816	-0.843018	0.841761	-0.162941	0.514673	-0.094739	-0.983154	-0.156310
36089		0.533366	0.080252	-0.842069	0.840056	-0.166914	0.516184	-0.099128	-0.982700	-0.156443
36090		0.535189	0.076994	-0.841216	0.838073	-0.173194	0.517337	-0.105862	-0.981874	-0.157218
36091		0.537258	0.072958	-0.840256	0.835489	-0.182320	0.518380	-0.115376	-0.980529	-0.158908
36092		0.538780	0.069224	-0.839598	0.833048	-0.192233	0.518727	-0.125490	-0.978905	-0.161239
36094		0.540139	0.063405	-0.839184	0.830389	-0.202196	0.519202	-0.136759	-0.977291	-0.161864
36095		0.539849	0.062207	-0.839460	0.830087	-0.204862	0.518640	-0.139710	-0.976812	-0.162232
36096		0.538648	0.063398	-0.840142	0.830761	-0.206058	0.517084	-0.140336	-0.976484	-0.163661
36097		0.537363	0.066692	-0.840710	0.831795	-0.206369	0.515295	-0.139130	-0.976199	-0.166369
36098		0.534899	0.072429	-0.841806	0.834146	-0.203842	0.512493	-0.134476	-0.976321	-0.169451
36099		0.532880	0.080469	-0.842356	0.836858	-0.197553	0.510530	-0.125328	-0.976984	-0.172613
36100		0.531135	0.088428	-0.842660	0.839637	-0.188279	0.509472	-0.113604	-0.978127	-0.174249
36101		0.529076	0.095573	-0.843175	0.842130	-0.181358	0.507864	-0.104378	-0.978762	-0.176437
36102		0.526189	0.102041	-0.844223	0.844690	-0.177253	0.505055	-0.098105	-0.978861	-0.179462
36103		0.521877	0.107419	-0.846230	0.847900	-0.173865	0.500836	-0.093331	-0.978893	-0.181817
36104		0.514944	0.111741	-0.849910	0.852697	-0.168524	0.494477	-0.087977	-0.979344	-0.182061
36105		0.505505	0.115379	-0.855074	0.859101	-0.159270	0.486394	-0.080068	-0.980470	-0.179634
36106		0.493443	0.118376	-0.861685	0.866959	-0.146643	0.476318	-0.069976	-0.982081	-0.174987
36107		0.478387	0.120734	-0.869810	0.876141	-0.132571	0.463468	-0.059355	-0.983793	-0.169201
36108		0.461936	0.123018	-0.878340	0.885566	-0.118545	0.449133	-0.048872	-0.985299	-0.163700
36109		0.444041	0.124878	-0.887261	0.895178	-0.104396	0.433310	-0.038515	-0.986665	-0.158144
36110		0.424546	0.126350	-0.896547	0.904952	-0.090580	0.415761	-0.028678	-0.987842	-0.152796
36111		0.405174	0.126586	-0.905434	0.914026	-0.077525	0.398180	-0.019790	-0.988922	-0.147114
36112		0.384918	0.125876	-0.914327	0.922861	-0.066275	0.379387	-0.012842	-0.989830	-0.141676
36114		0.341995	0.120333	-0.931965	0.939695	-0.047404	0.338711	-0.003421	-0.991601	-0.129288
36115		0.319353	0.115017	-0.940630	0.947630	-0.035210	0.317424	0.003390	-0.992739	-0.120238
36116		0.294484	0.109061	-0.949413	0.955647	-0.029318	0.293050	0.004125	-0.993603	-0.112858
36117		0.270524	0.100807	-0.957421	0.962703	-0.033034	0.268538	-0.004557	-0.994357	-0.105984
36118		0.245146	0.091526	-0.965156	0.969374	-0.038318	0.242583	-0.014780	-0.995065	-0.098116
36119		0.219954	0.083262	-0.971950	0.975333	-0.037744	0.217486	-0.018577	-0.995813	-0.089510
36120		0.196116	0.077309	-0.977528	0.980322	-0.038337	0.193645	-0.022505	-0.996270	-0.083306
36122		0.152855	0.069834	-0.985778	0.987448	-0.050946	0.149505	-0.039781	-0.996257	-0.076745
36123		0.133701	0.066430	-0.988793	0.990159	-0.050580	0.130487	-0.041344	-0.996508	-0.072539
36124		0.117380	0.062197	-0.991137	0.992293	-0.047259	0.114551	-0.039716	-0.996944	-0.067265
36125		0.103280	0.058666	-0.992921	0.993856	-0.046034	0.100658	-0.039803	-0.997216	-0.063059
36126		0.091876	0.058295	-0.994063	0.994942	-0.046089	0.089255	-0.040612	-0.997235	-0.062235
36127		0.082006	0.058397	-0.994920	0.995877	-0.043638	0.079523	-0.038772	-0.997339	-0.061735
36128		0.072322	0.060064	-0.995571	0.996641	-0.042799	0.069818	-0.038416	-0.997277	-0.062958
36129		0.063754	0.060590	-0.996125	0.997111	-0.045175	0.061070	-0.041299	-0.997140	-0.063295
36130		0.056591	0.060393	-0.996569	0.997500	-0.045729	0.053873	-0.042318	-0.997127	-0.062830
36131		0.052233	0.060317	-0.996812	0.997795	-0.044077	0.049617	-0.040944	-0.997206	-0.062486
36132		0.050347	0.060286	-0.996911	0.997843	-0.045127	0.047666	-0.042114	-0.997161	-0.062428
36133		0.050701	0.060651	-0.996871	0.997568	-0.050872	0.047642	-0.047823	-0.996862	-0.063083
36134		0.051945	0.061130	-0.996777	0.997183	-0.057257	0.048454	-0.054110	-0.996486	-0.063932
36135		0.052215	0.061857	-0.996718	0.997146	-0.057730	0.048655	-0.054530	-0.996414	-0.064695
36136		0.052296	0.062445	-0.996677	0.997326	-0.054285	0.048929	-0.051050	-0.996571	-0.065117
36137		0.052513	0.062327	-0.996673	0.997448	-0.051609	0.049326	-0.048363	-0.996721	-0.064878
36138		0.053503	0.061728	-0.996658	0.997374	-0.052090	0.050315	-0.048810	-0.996733	-0.064353
36139		0.055391	0.060394	-0.996637	0.997212	-0.053333	0.052191	-0.050002	-0.996749	-0.063179
36140		0.060883	0.058370	-0.996437	0.996883	-0.053730	0.057763	-0.050167	-0.996848	-0.061459
36141		0.070180	0.055798	-0.995973	0.996260	-0.054369	0.067154	-0.050403	-0.996961	-0.059405
36142		0.085765	0.052573	-0.994927	0.994918	-0.057389	0.082732	-0.052748	-0.996967	-0.057228
36143		0.106760	0.049779	-0.993038	0.992974	-0.056613	0.103915	-0.051046	-0.997154	-0.055473
36144		0.137852	0.050950	-0.989142	0.988798	-0.064784	0.134467	-0.057230	-0.996598	-0.059310
36145		0.170184	0.055547	-0.983845	0.982379	-0.087843	0.164971	-0.077260	-0.994584	-0.069518
36146		0.197624	0.060487	-0.978410	0.975516	-0.110392	0.190215	-0.096503	-0.992046	-0.080822
36147		0.217494	0.067411	-0.973731	0.971946	-0.106473	0.209724	-0.089538	-0.992028	-0.088677
36148		0.235626	0.075419	-0.968913	0.970452	-0.071595	0.230427	-0.051991	-0.994578	-0.090060
36149		0.258483	0.078434	-0.962826	0.965374	-0.057286	0.254501	-0.035195	-0.995272	-0.090526
36150		0.284330	0.076865	-0.955640	0.955927	-0.098845	0.276465	-0.073210	-0.992130	-0.101582
36151		0.311669	0.075628	-0.947176	0.944014	-0.138119	0.299600	-0.108165	-0.987524	-0.114441
36152		0.336030	0.077744	-0.938637	0.936216	-0.136424	0.323864	-0.102874	-0.987595	-0.118628
36154		0.378397	0.081078	-0.922086	0.922405	-0.116290	0.368302	-0.077368	-0.989900	-0.118791
36155		0.395934	0.078869	-0.914886	0.912956	-0.140931	0.382949	-0.098733	-0.986873	-0.127803
36156		0.412845	0.075599	-0.907658	0.904135	-0.154365	0.398386	-0.109993	-0.985117	-0.132080
36157		0.428554	0.072042	-0.900640	0.897063	-0.152856	0.414625	-0.107798	-0.985619	-0.130133
36158		0.441778	0.067250	-0.894600	0.889538	-0.162243	0.427081	-0.116422	-0.984456	-0.131497
36159		0.454245	0.060956	-0.888789	0.880632	-0.181586	0.437623	-0.134716	-0.981484	-0.136164
36160		0.466174	0.055065	-0.882978	0.873062	-0.189939	0.449094	-0.142982	-0.980251	-0.136620
36161		0.478184	0.051482	-0.876750	0.867097	-0.186330	0.461978	-0.139581	-0.981137	-0.133740
36162		0.488990	0.049036	-0.870910	0.860818	-0.188515	0.472709	-0.141000	-0.980845	-0.134393
36163		0.497488	0.048099	-0.866136	0.855040	-0.195612	0.480252	-0.146328	-0.979501	-0.138441
36164		0.504213	0.049324	-0.862170	0.851088	-0.197575	0.486429	-0.146351	-0.979046	-0.141599
36165		0.509405	0.051509	-0.858984	0.848649	-0.195351	0.491562	-0.142483	-0.979380	-0.143226
36166		0.513972	0.053196	-0.856156	0.845804	-0.197813	0.495466	-0.143002	-0.978795	-0.146663
36167		0.516960	0.054348	-0.854282	0.843250	-0.204002	0.497306	-0.147247	-0.977461	-0.151290
36168		0.518576	0.054135	-0.853316	0.841897	-0.206584	0.498531	-0.149294	-0.976930	-0.152706
36169		0.519000	0.053981	-0.853068	0.841630	-0.206617	0.498967	-0.149324	-0.976932	-0.152666
36170		0.518133	0.053998	-0.853594	0.841924	-0.208012	0.497890	-0.150672	-0.976635	-0.153240
36171		0.516274	0.054831	-0.854667	0.842506	-0.211697	0.495346	-0.153770	-0.975796	-0.155489
36172		0.513604	0.056524	-0.856163	0.844216	-0.211604	0.492467	-0.153331	-0.975720	-0.156399
36173		0.511345	0.058999	-0.857348	0.846137	-0.209004	0.490275	-0.150264	-0.976133	-0.156795
36174		0.509323	0.063166	-0.858254	0.847743	-0.208408	0.487747	-0.148058	-0.976000	-0.159696
36175		0.508222	0.068403	-0.858505	0.848746	-0.208866	0.485803	-0.146082	-0.975549	-0.164208
36176		0.507838	0.074355	-0.858238	0.849382	-0.209415	0.484454	-0.143707	-0.974996	-0.169504
36177		0.507948	0.079924	-0.857672	0.849611	-0.210568	0.483552	-0.141951	-0.974307	-0.174862
36178		0.507663	0.084655	-0.857387	0.850116	-0.210854	0.482539	-0.139935	-0.973845	-0.179009
36179		0.507247	0.086033	-0.857496	0.850806	-0.208421	0.482379	-0.137220	-0.974248	-0.178918
36180		0.505719	0.084215	-0.858578	0.851216	-0.210546	0.480731	-0.140285	-0.973950	-0.178162
36181		0.503479	0.079968	-0.860299	0.851368	-0.215612	0.478210	-0.147249	-0.973199	-0.176639
36182		0.500950	0.074126	-0.862296	0.851887	-0.218093	0.476155	-0.152765	-0.973109	-0.172401
36183		0.498680	0.067272	-0.864172	0.852398	-0.218961	0.474841	-0.157276	-0.973412	-0.166534
36184		0.497234	0.060156	-0.865529	0.852059	-0.221925	0.474071	-0.163565	-0.973206	-0.161605
36185		0.496937	0.054720	-0.866060	0.851211	-0.224867	0.474209	-0.168799	-0.972852	-0.158323
36186		0.497707	0.052020	-0.865784	0.850687	-0.223974	0.475571	-0.169174	-0.973206	-0.155726
36187		0.499552	0.051892	-0.864728	0.849807	-0.223115	0.477543	-0.168153	-0.973410	-0.155555
36188		0.501998	0.054671	-0.863139	0.848493	-0.224420	0.479266	-0.167504	-0.972958	-0.159046
36189		0.504533	0.059500	-0.861340	0.847440	-0.225017	0.480847	-0.165206	-0.972536	-0.163951
36190		0.506634	0.065410	-0.859676	0.846909	-0.224484	0.482029	-0.161454	-0.972280	-0.169128
36191		0.508245	0.070615	-0.858312	0.846518	-0.224285	0.482809	-0.158412	-0.971962	-0.173769
36193		0.510404	0.078554	-0.856339	0.846172	-0.223325	0.483858	-0.153233	-0.971574	-0.180456
36194		0.511660	0.080279	-0.855430	0.845720	-0.222651	0.484957	-0.151531	-0.971587	-0.181815
36195		0.513287	0.081601	-0.854329	0.844971	-0.222275	0.486434	-0.150202	-0.971563	-0.183042
36196		0.515729	0.080959	-0.852918	0.844089	-0.218538	0.489648	-0.146754	-0.972464	-0.181043
36197		0.519141	0.080544	-0.850885	0.842442	-0.216150	0.493529	-0.144168	-0.973032	-0.180066
36199		0.523046	0.082002	-0.848350	0.841976	-0.204199	0.499378	-0.132282	-0.975489	-0.175850
36200		0.524121	0.083834	-0.847507	0.842460	-0.196788	0.501534	-0.124734	-0.976855	-0.173768
36201		0.523516	0.087421	-0.847519	0.843809	-0.190931	0.501530	-0.117974	-0.977703	-0.173722
36202		0.521445	0.092038	-0.848306	0.846179	-0.183807	0.500195	-0.109888	-0.978644	-0.173726
36203		0.516538	0.096677	-0.850789	0.850616	-0.171870	0.496903	-0.098186	-0.980364	-0.171013
36204		0.508643	0.100594	-0.855081	0.856636	-0.158746	0.490892	-0.086360	-0.982181	-0.166917
36205		0.497316	0.103343	-0.861392	0.864263	-0.145612	0.481504	-0.075669	-0.983930	-0.161730
36206		0.482564	0.105510	-0.869482	0.873364	-0.132875	0.468594	-0.066092	-0.985501	-0.156269
36207		0.463990	0.107168	-0.879334	0.884041	-0.119256	0.451940	-0.056433	-0.987063	-0.150075
36208		0.441941	0.108365	-0.890475	0.895946	-0.102414	0.432194	-0.044362	-0.988822	-0.142350
36209		0.417481	0.109114	-0.902111	0.908264	-0.080342	0.410611	-0.027674	-0.990777	-0.132646
36210		0.390584	0.108282	-0.914177	0.920475	-0.060002	0.386168	-0.013038	-0.992308	-0.123106
36211		0.361292	0.107017	-0.926291	0.932414	-0.050504	0.357845	-0.008486	-0.992974	-0.118031
36212		0.332120	0.105814	-0.937283	0.943206	-0.045334	0.329100	-0.007668	-0.993352	-0.114860
36213		0.303575	0.102463	-0.947282	0.952806	-0.034193	0.301647	-0.001483	-0.994149	-0.108008
36214		0.275322	0.098837	-0.956258	0.961278	-0.015995	0.275115	0.011896	-0.994975	-0.099414
36215		0.246084	0.094062	-0.964674	0.968970	-0.000019	0.247178	0.023231	-0.995566	-0.091148
36216		0.216989	0.086944	-0.972294	0.975823	0.007406	0.218439	0.026193	-0.996186	-0.083235
36218		0.165642	0.073013	-0.983479	0.986177	-0.008151	0.165492	0.004067	-0.997298	-0.073354
36219		0.141162	0.068133	-0.987639	0.989976	-0.014350	0.140506	-0.004599	-0.997573	-0.069475
36220		0.118530	0.065670	-0.990777	0.992940	-0.012359	0.117969	-0.004498	-0.997765	-0.066671
36221		0.095835	0.065502	-0.993240	0.995393	-0.003247	0.095829	0.003052	-0.997847	-0.065512
36222		0.073121	0.065793	-0.995151	0.997281	0.004334	0.073564	0.009153	-0.997824	-0.065297
36223		0.051715	0.066226	-0.996464	0.998549	0.011544	0.052590	0.014986	-0.997738	-0.065533
36224		0.033962	0.066842	-0.997185	0.999186	0.019446	0.035334	0.021753	-0.997574	-0.066128
36225		0.025189	0.070269	-0.997210	0.999378	0.022859	0.026855	0.024682	-0.997266	-0.069649
36226		0.025521	0.069417	-0.997261	0.999604	0.010055	0.026281	0.011851	-0.997537	-0.069133
36228		0.037366	0.065716	-0.997139	0.998947	-0.029053	0.035519	-0.026636	-0.997415	-0.066732
36229		0.043655	0.065986	-0.996865	0.998520	-0.035283	0.041392	-0.032441	-0.997197	-0.067429
36230		0.048424	0.066235	-0.996628	0.998174	-0.039274	0.045889	-0.036102	-0.997031	-0.068016
36231		0.052688	0.065837	-0.996438	0.997821	-0.043147	0.049911	-0.039708	-0.996897	-0.067967
36232		0.056326	0.065716	-0.996247	0.997650	-0.042696	0.053589	-0.039015	-0.996924	-0.067967
36233		0.057915	0.066306	-0.996117	0.997708	-0.038811	0.055424	-0.034985	-0.997044	-0.068402
36234		0.057182	0.067625	-0.996071	0.997943	-0.032848	0.055060	-0.028995	-0.997170	-0.069364
36235		0.055699	0.069012	-0.996060	0.998077	-0.031034	0.053662	-0.027209	-0.997133	-0.070607
36236		0.054995	0.070426	-0.996000	0.997994	-0.035217	0.052615	-0.031370	-0.996895	-0.072221
36237		0.055285	0.071592	-0.995901	0.997865	-0.038697	0.052613	-0.034771	-0.996683	-0.073578
36238		0.055543	0.072128	-0.995848	0.997810	-0.039878	0.052764	-0.035907	-0.996598	-0.074185
36239		0.055675	0.072308	-0.995827	0.997765	-0.040935	0.052811	-0.036946	-0.996542	-0.074425
36241		0.056338	0.072284	-0.995792	0.997747	-0.040456	0.053512	-0.036418	-0.996563	-0.074401
36243		0.057476	0.072457	-0.995714	0.997601	-0.042727	0.054476	-0.038597	-0.996456	-0.074739
36244		0.058114	0.072811	-0.995651	0.997451	-0.045591	0.054885	-0.041397	-0.996303	-0.075275
36245		0.059104	0.073234	-0.995562	0.997194	-0.050230	0.055506	-0.045942	-0.996049	-0.075997
36246		0.060504	0.073637	-0.995448	0.996892	-0.054876	0.056532	-0.050464	-0.995774	-0.076729
36247		0.062761	0.073038	-0.995352	0.996563	-0.058621	0.058536	-0.054073	-0.995605	-0.076466
36248		0.067032	0.071742	-0.995168	0.996097	-0.062210	0.062610	-0.057418	-0.995481	-0.075632
36249		0.072696	0.069723	-0.994914	0.995473	-0.066305	0.068090	-0.061221	-0.995360	-0.074227
36250		0.079105	0.066942	-0.994616	0.994792	-0.069629	0.074433	-0.064272	-0.995324	-0.072101
36251		0.086087	0.064072	-0.994225	0.994064	-0.072161	0.081422	-0.066528	-0.995333	-0.069904
36252		0.094485	0.060525	-0.993685	0.993237	-0.073384	0.089973	-0.067475	-0.995465	-0.067049
36253		0.106008	0.057262	-0.992715	0.992253	-0.071123	0.101856	-0.064773	-0.995823	-0.064358
36254		0.119508	0.055311	-0.991291	0.990947	-0.068160	0.115663	-0.061169	-0.996140	-0.062956
36255		0.135717	0.054279	-0.989260	0.988750	-0.070797	0.131762	-0.062884	-0.996013	-0.063276
36256		0.154898	0.055201	-0.986387	0.985603	-0.077133	0.150459	-0.067778	-0.995492	-0.066354
36258		0.196049	0.065254	-0.978421	0.978425	-0.079343	0.190758	-0.065183	-0.994709	-0.079401
36259		0.211299	0.070215	-0.974896	0.975694	-0.074423	0.206112	-0.058083	-0.994752	-0.084234
36260		0.224889	0.074021	-0.971569	0.972653	-0.076470	0.219314	-0.058062	-0.994321	-0.089194
36261		0.240589	0.074481	-0.967765	0.968373	-0.086334	0.234096	-0.066115	-0.993478	-0.092897
36262		0.259757	0.074466	-0.962799	0.962695	-0.098220	0.252133	-0.075790	-0.992375	-0.097201
36263		0.284308	0.075458	-0.955759	0.954759	-0.112958	0.275092	-0.087203	-0.990730	-0.104159
36264		0.309055	0.079152	-0.947745	0.945814	-0.129949	0.297572	-0.099605	-0.988356	-0.115024
36265		0.334261	0.083171	-0.938804	0.937097	-0.135644	0.321636	-0.100593	-0.987260	-0.123279
36266		0.358252	0.086554	-0.929604	0.928952	-0.132543	0.345660	-0.093294	-0.987391	-0.127888
36268		0.403802	0.087602	-0.910643	0.910506	-0.135332	0.390723	-0.089011	-0.986920	-0.134410
36269		0.426483	0.084819	-0.900510	0.900147	-0.137307	0.413378	-0.088584	-0.986890	-0.134909
36270		0.448670	0.081791	-0.889947	0.888765	-0.145315	0.434719	-0.093766	-0.985999	-0.137892
36271		0.469352	0.077148	-0.879635	0.877305	-0.153810	0.454619	-0.100224	-0.985084	-0.139873
36272		0.488615	0.072038	-0.869520	0.866189	-0.159694	0.473513	-0.104746	-0.984535	-0.140427
36273		0.506647	0.067460	-0.859510	0.855249	-0.165243	0.491166	-0.108894	-0.983943	-0.141415
36274		0.522369	0.064123	-0.850305	0.845396	-0.169357	0.506581	-0.111521	-0.983467	-0.142676
36275		0.536376	0.062701	-0.841647	0.836480	-0.172138	0.520259	-0.112259	-0.983075	-0.144779
36276		0.548083	0.062868	-0.834058	0.828524	-0.177535	0.531064	-0.114688	-0.982104	-0.149392
36277		0.557843	0.064527	-0.827435	0.821722	-0.182950	0.539724	-0.116552	-0.981002	-0.155080
36278		0.565527	0.067833	-0.821935	0.816531	-0.186226	0.546440	-0.115999	-0.980162	-0.160704
36279		0.570873	0.071767	-0.817895	0.813009	-0.188388	0.550932	-0.114543	-0.979469	-0.165893
36280		0.573171	0.073746	-0.816110	0.811181	-0.192070	0.552353	-0.116016	-0.978607	-0.169910
36281		0.573609	0.074357	-0.815748	0.810340	-0.197010	0.551848	-0.119677	-0.977578	-0.173261
36282		0.571795	0.073292	-0.817116	0.811645	-0.195629	0.550420	-0.119510	-0.977935	-0.171347
36283		0.569193	0.071190	-0.819116	0.813504	-0.193302	0.548493	-0.119290	-0.978553	-0.167940
36284		0.565529	0.069092	-0.821830	0.815636	-0.194416	0.544922	-0.122127	-0.978483	-0.166301
36285		0.561418	0.068234	-0.824714	0.818341	-0.193901	0.541037	-0.122996	-0.978645	-0.164699
36286		0.556831	0.069225	-0.827736	0.822070	-0.188585	0.537248	-0.118908	-0.979614	-0.161918
36287		0.552984	0.071974	-0.830077	0.825292	-0.184181	0.533827	-0.114463	-0.980254	-0.161249
36288		0.550288	0.076295	-0.831482	0.827435	-0.183354	0.530786	-0.111959	-0.980082	-0.164026
36289		0.548773	0.081774	-0.831962	0.829076	-0.180801	0.529098	-0.107153	-0.980114	-0.167015
36290		0.549138	0.086497	-0.831243	0.829298	-0.179572	0.529167	-0.103497	-0.979935	-0.170342
36291		0.551054	0.089995	-0.829603	0.828003	-0.182503	0.530193	-0.103690	-0.979078	-0.175085
36292		0.553657	0.092176	-0.827628	0.826146	-0.185674	0.531986	-0.104633	-0.978278	-0.178950
36293		0.556479	0.093686	-0.825563	0.824313	-0.186760	0.534443	-0.104112	-0.977928	-0.181155
36294		0.559216	0.095135	-0.823545	0.822605	-0.187033	0.536972	-0.102945	-0.977736	-0.182850
36295		0.561395	0.096548	-0.821897	0.821139	-0.188362	0.538750	-0.102799	-0.977342	-0.185025
36296		0.562990	0.097581	-0.820683	0.819906	-0.190786	0.539772	-0.103903	-0.976769	-0.187418
36297		0.563318	0.098625	-0.820333	0.819467	-0.193556	0.539453	-0.105577	-0.976119	-0.189853
36298		0.562855	0.099393	-0.820558	0.819767	-0.194106	0.538800	-0.105722	-0.975932	-0.190732
36299		0.562238	0.099849	-0.820926	0.820274	-0.193451	0.538262	-0.105064	-0.976016	-0.190669
36300		0.561420	0.100108	-0.821454	0.820761	-0.194077	0.537295	-0.105638	-0.975865	-0.191123
36301		0.560928	0.100011	-0.821802	0.821009	-0.194693	0.536693	-0.106324	-0.975752	-0.191318
36302		0.560706	0.100130	-0.821939	0.821284	-0.193566	0.536679	-0.105361	-0.975964	-0.190769
36303		0.561057	0.100161	-0.821695	0.821149	-0.192705	0.537195	-0.104539	-0.976131	-0.190366
36304		0.562128	0.099785	-0.821009	0.820297	-0.193873	0.538077	-0.105479	-0.975939	-0.190835
36305		0.563436	0.099377	-0.820161	0.819193	-0.195850	0.539041	-0.107061	-0.975585	-0.191758
36306		0.564993	0.098530	-0.819192	0.818144	-0.195506	0.540756	-0.106876	-0.975740	-0.191071
36307		0.566917	0.097600	-0.817973	0.816712	-0.196335	0.542617	-0.107638	-0.975667	-0.191017
36308		0.568648	0.097110	-0.816828	0.815172	-0.199503	0.543777	-0.110154	-0.975073	-0.192609
36309		0.569882	0.096978	-0.815984	0.814145	-0.201217	0.544683	-0.111368	-0.974734	-0.193624
36310		0.570472	0.097511	-0.815508	0.813713	-0.201903	0.545074	-0.111503	-0.974539	-0.194526
36311		0.569953	0.098991	-0.815693	0.814044	-0.203026	0.544162	-0.111740	-0.974157	-0.196298
36312		0.568756	0.100999	-0.816281	0.814918	-0.203694	0.542603	-0.111469	-0.973811	-0.198159
36313		0.567385	0.103275	-0.816951	0.815885	-0.204699	0.540768	-0.111381	-0.973362	-0.200403
36314		0.565913	0.105195	-0.817727	0.816901	-0.205589	0.538894	-0.111427	-0.972968	-0.202279
36315		0.565228	0.105381	-0.818176	0.817423	-0.205092	0.538291	-0.111076	-0.973053	-0.202065
36316		0.564504	0.104072	-0.818843	0.817820	-0.204921	0.537753	-0.111833	-0.973230	-0.200791
36317		0.563816	0.101983	-0.819580	0.818555	-0.201054	0.538094	-0.109904	-0.974257	-0.196836
36318		0.562476	0.099767	-0.820773	0.819827	-0.196077	0.537994	-0.107261	-0.975500	-0.192080
36319		0.560594	0.097770	-0.822299	0.821151	-0.193925	0.536754	-0.106985	-0.976132	-0.188997
36320		0.557382	0.096996	-0.824571	0.823400	-0.191946	0.534012	-0.106476	-0.976600	-0.186854
36321		0.552411	0.097093	-0.827898	0.827066	-0.187690	0.529844	-0.103944	-0.977418	-0.183985
36323		0.536958	0.099344	-0.837739	0.838337	-0.173678	0.516746	-0.094161	-0.979779	-0.176542
36324		0.526104	0.101708	-0.844317	0.846114	-0.162390	0.507662	-0.085475	-0.981471	-0.171490
36325		0.511818	0.104566	-0.852707	0.855738	-0.149705	0.495279	-0.075865	-0.983186	-0.166103
36326		0.497029	0.107098	-0.861099	0.865096	-0.138470	0.482114	-0.067603	-0.984559	-0.161474
36327		0.480698	0.109191	-0.870061	0.874912	-0.126265	0.467532	-0.058808	-0.985969	-0.156228
36328		0.463217	0.109919	-0.879402	0.884768	-0.114621	0.451717	-0.051146	-0.987309	-0.150347
36330		0.426845	0.107515	-0.897911	0.903407	-0.095413	0.418033	-0.040728	-0.989614	-0.137857
36331		0.407323	0.104518	-0.907284	0.912548	-0.086463	0.399726	-0.036668	-0.990757	-0.130596
36332		0.386552	0.101814	-0.916630	0.921704	-0.077386	0.380096	-0.032235	-0.991789	-0.123756
36333		0.366115	0.098440	-0.925348	0.930158	-0.068286	0.360753	-0.027675	-0.992797	-0.116565
36334		0.345379	0.094518	-0.933691	0.938148	-0.060546	0.340899	-0.024311	-0.993680	-0.109583
36335		0.325838	0.090568	-0.941078	0.945104	-0.057171	0.321730	-0.024664	-0.994248	-0.104225
36336		0.307035	0.086685	-0.947742	0.951377	-0.053824	0.303290	-0.024720	-0.994781	-0.098996
36337		0.287066	0.083432	-0.954270	0.957582	-0.051096	0.283595	-0.025098	-0.995203	-0.094560
36338		0.268608	0.079733	-0.959944	0.962947	-0.047198	0.265528	-0.024136	-0.995698	-0.089457
36339		0.250191	0.076452	-0.965173	0.967963	-0.041637	0.247617	-0.021257	-0.996204	-0.084420
36340		0.231913	0.073140	-0.969983	0.972513	-0.038804	0.229592	-0.020847	-0.996567	-0.080129
36341		0.214391	0.069106	-0.974300	0.976475	-0.038729	0.212123	-0.023075	-0.996857	-0.075784
36342		0.196796	0.064688	-0.978308	0.980180	-0.036154	0.194782	-0.022769	-0.997250	-0.070521
36343		0.179479	0.061297	-0.981850	0.983574	-0.030670	0.177879	-0.019209	-0.997648	-0.065795
36344		0.163732	0.058533	-0.984767	0.986364	-0.026596	0.162416	-0.016684	-0.997931	-0.062090
36345		0.149581	0.056584	-0.987129	0.988556	-0.028320	0.148174	-0.019572	-0.997996	-0.060172
36346		0.136758	0.054973	-0.989078	0.990294	-0.032589	0.135115	-0.024805	-0.997956	-0.058896
36347		0.126020	0.053665	-0.990575	0.991654	-0.034220	0.124304	-0.027227	-0.997972	-0.057530
36348		0.116467	0.052959	-0.991782	0.992724	-0.036944	0.114605	-0.030571	-0.997913	-0.056877
36349		0.107699	0.052313	-0.992806	0.993562	-0.040977	0.105621	-0.035157	-0.997790	-0.056390
36350		0.099808	0.052334	-0.993629	0.994263	-0.043848	0.097562	-0.038463	-0.997667	-0.056410
36351		0.092877	0.051963	-0.994321	0.994789	-0.047026	0.090464	-0.042058	-0.997541	-0.056060
36352		0.087163	0.051760	-0.994848	0.995193	-0.049278	0.084630	-0.044644	-0.997443	-0.055806
36353		0.083397	0.051940	-0.995162	0.995501	-0.049408	0.080847	-0.044970	-0.997427	-0.055827
36354		0.082226	0.051604	-0.995277	0.995503	-0.051380	0.079581	-0.047031	-0.997345	-0.055597
36355		0.083453	0.050988	-0.995206	0.995275	-0.053998	0.080692	-0.049624	-0.997238	-0.055253
36356		0.086068	0.050419	-0.995013	0.994919	-0.056721	0.083185	-0.052243	-0.997116	-0.055045
36357		0.089042	0.049696	-0.994787	0.994490	-0.059920	0.086022	-0.055333	-0.996965	-0.054757
36358		0.091294	0.048996	-0.994618	0.994117	-0.062936	0.088148	-0.058278	-0.996814	-0.054454
36359		0.092393	0.048925	-0.994520	0.993886	-0.065174	0.089128	-0.060456	-0.996674	-0.054648
36360		0.092596	0.049342	-0.994480	0.993767	-0.066844	0.089213	-0.062073	-0.996543	-0.055224
36361		0.092544	0.049881	-0.994458	0.993632	-0.069097	0.089002	-0.064275	-0.996362	-0.055958
36362		0.092766	0.050249	-0.994419	0.993436	-0.071809	0.089045	-0.066934	-0.996152	-0.056580
36363		0.093704	0.050755	-0.994305	0.993155	-0.074717	0.089782	-0.069734	-0.995912	-0.057409
36364		0.094446	0.050728	-0.994237	0.992990	-0.076102	0.090445	-0.071075	-0.995809	-0.057560
36365		0.094480	0.050445	-0.994248	0.992945	-0.076657	0.090466	-0.071653	-0.995781	-0.057332
36366		0.094122	0.050715	-0.994268	0.993081	-0.075224	0.090173	-0.070220	-0.995876	-0.057444
36368		0.094209	0.051952	-0.994196	0.993217	-0.073270	0.090287	-0.068154	-0.995958	-0.058503
36369		0.094583	0.052555	-0.994129	0.993225	-0.072707	0.090654	-0.067516	-0.995968	-0.059076
36370		0.095149	0.053328	-0.994034	0.993169	-0.072837	0.091159	-0.067541	-0.995917	-0.059894
36371		0.096027	0.054115	-0.993907	0.993032	-0.073738	0.091927	-0.068314	-0.995808	-0.060819
36373		0.100319	0.055206	-0.993423	0.992292	-0.078553	0.095840	-0.072745	-0.995380	-0.062660
36374		0.105932	0.056634	-0.992759	0.991706	-0.079100	0.101307	-0.072790	-0.995257	-0.064544
36375		0.113812	0.056745	-0.991880	0.990860	-0.079248	0.109162	-0.072410	-0.995239	-0.065246
36376		0.121547	0.055060	-0.991057	0.989850	-0.080799	0.116910	-0.073639	-0.995209	-0.064322
36377		0.129826	0.052689	-0.990136	0.988636	-0.083209	0.125201	-0.075791	-0.995138	-0.062893
36378		0.139327	0.051250	-0.988919	0.987318	-0.083932	0.134752	-0.076096	-0.995153	-0.062294
36379		0.151548	0.050429	-0.987163	0.985627	-0.083128	0.147066	-0.074644	-0.995262	-0.062302
36380		0.166951	0.050357	-0.984678	0.983248	-0.082591	0.162484	-0.073144	-0.995310	-0.063302
36381		0.185347	0.050651	-0.981367	0.980165	-0.080832	0.180948	-0.070161	-0.995440	-0.064628
36382		0.204570	0.051452	-0.977499	0.976450	-0.080646	0.200106	-0.068535	-0.995414	-0.066738
36383		0.222694	0.053560	-0.973416	0.972738	-0.078494	0.218220	-0.064720	-0.995475	-0.069580
36384		0.242673	0.055681	-0.968509	0.968309	-0.074680	0.238329	-0.059058	-0.995652	-0.072039
36385		0.265475	0.059027	-0.962309	0.963061	-0.062960	0.261820	-0.045133	-0.996269	-0.073561
36386		0.288301	0.064019	-0.955397	0.956441	-0.067035	0.284124	-0.045856	-0.995695	-0.080557
36387		0.312981	0.067206	-0.947379	0.947683	-0.088017	0.306838	-0.062764	-0.993849	-0.091238
36388		0.334614	0.071650	-0.939627	0.939669	-0.100598	0.326958	-0.071098	-0.992344	-0.100989
36390		0.368380	0.080374	-0.926195	0.927755	-0.095782	0.360689	-0.059723	-0.992152	-0.109852
36391		0.383509	0.080279	-0.920042	0.921533	-0.098862	0.375504	-0.060812	-0.991858	-0.111894
36392		0.398036	0.080216	-0.913856	0.914958	-0.106906	0.389132	-0.066482	-0.991028	-0.115947
36393		0.411419	0.079902	-0.907937	0.908631	-0.114182	0.401686	-0.071574	-0.990242	-0.119578
36394		0.424490	0.079270	-0.901956	0.902809	-0.112845	0.414973	-0.068886	-0.990446	-0.119467
36395		0.436326	0.078920	-0.896321	0.897244	-0.113022	0.426824	-0.067619	-0.990453	-0.120125
36396		0.447159	0.077582	-0.891083	0.891652	-0.117457	0.437218	-0.070744	-0.990043	-0.121698
36397		0.456297	0.075897	-0.886585	0.886700	-0.122245	0.445891	-0.074538	-0.989594	-0.123078
36398		0.464785	0.074016	-0.882324	0.882156	-0.124242	0.454274	-0.075998	-0.989487	-0.123040
36399		0.474654	0.072448	-0.877186	0.876564	-0.129057	0.463658	-0.079616	-0.988987	-0.124763
36400		0.484150	0.069797	-0.872197	0.870283	-0.141617	0.471755	-0.090591	-0.987458	-0.129307
36401		0.490458	0.065861	-0.868973	0.865834	-0.149997	0.477318	-0.098907	-0.986490	-0.130592
36402		0.497330	0.060948	-0.865418	0.861577	-0.151657	0.484443	-0.101721	-0.986552	-0.127936
36403		0.502882	0.056298	-0.862520	0.858307	-0.150365	0.490611	-0.102072	-0.987026	-0.123937
36404		0.508881	0.052221	-0.859251	0.854153	-0.154772	0.496456	-0.107063	-0.986569	-0.123366
36405		0.513751	0.050258	-0.856466	0.850722	-0.159055	0.500972	-0.111047	-0.985990	-0.124470
36406		0.517013	0.049977	-0.854518	0.848720	-0.159658	0.504167	-0.111233	-0.985907	-0.124962
36407		0.519643	0.050440	-0.852893	0.846974	-0.161590	0.506481	-0.112272	-0.985568	-0.126691
36408		0.521810	0.050536	-0.851563	0.845002	-0.167513	0.507849	-0.116984	-0.984574	-0.130113
36409		0.523812	0.049929	-0.850369	0.842940	-0.174260	0.509004	-0.122771	-0.983433	-0.133367
36410		0.526655	0.048333	-0.848704	0.839997	-0.182897	0.510836	-0.130535	-0.981943	-0.136923
36411		0.529212	0.045486	-0.847270	0.836594	-0.194596	0.512097	-0.141582	-0.979828	-0.141036
36412		0.531152	0.042291	-0.846221	0.833972	-0.202397	0.513348	-0.149563	-0.978390	-0.142773
36413		0.533095	0.039007	-0.845156	0.831899	-0.206136	0.515220	-0.154120	-0.977746	-0.142340
36414		0.535384	0.037231	-0.843788	0.829649	-0.210379	0.517130	-0.158262	-0.976911	-0.143522
36415		0.537737	0.037543	-0.842276	0.827538	-0.214636	0.518760	-0.161307	-0.975972	-0.146487
36416		0.539580	0.039853	-0.840991	0.826279	-0.216799	0.519867	-0.161608	-0.975402	-0.149910
36417		0.541421	0.043041	-0.839649	0.825612	-0.215890	0.521303	-0.158835	-0.975468	-0.152423
36418		0.543412	0.046181	-0.838195	0.824981	-0.214064	0.523051	-0.155273	-0.975727	-0.154424
36419		0.545789	0.048893	-0.836495	0.823772	-0.213999	0.524980	-0.153341	-0.975610	-0.157075
36420		0.546710	0.051912	-0.835711	0.823616	-0.213185	0.525555	-0.150878	-0.975632	-0.159305
36421		0.545206	0.054889	-0.836503	0.826108	-0.204757	0.524995	-0.142463	-0.977273	-0.156979
36422		0.541942	0.056525	-0.838513	0.830265	-0.190615	0.523761	-0.130228	-0.980036	-0.150233
36423		0.538042	0.057206	-0.840975	0.833693	-0.183316	0.520914	-0.124364	-0.981388	-0.146324
36424		0.532624	0.059120	-0.844285	0.836953	-0.185044	0.515042	-0.125780	-0.980950	-0.148039
36425		0.526015	0.060853	-0.848295	0.841012	-0.185601	0.508185	-0.126520	-0.980739	-0.148807
36426		0.519139	0.062173	-0.852426	0.845547	-0.182852	0.501613	-0.124681	-0.981173	-0.147496
36427		0.512485	0.064296	-0.856286	0.850068	-0.178995	0.495323	-0.121424	-0.981747	-0.146388
36428		0.506584	0.066643	-0.859611	0.853943	-0.176357	0.489571	-0.118972	-0.982068	-0.146249
36429		0.501773	0.068401	-0.862291	0.856812	-0.176134	0.484613	-0.118730	-0.981987	-0.146986
36430		0.497649	0.070205	-0.864533	0.859163	-0.176754	0.480205	-0.119096	-0.981748	-0.148279
36431		0.494392	0.072331	-0.866225	0.861249	-0.175565	0.476892	-0.117585	-0.981807	-0.149093
36433		0.489834	0.075620	-0.868530	0.864254	-0.173044	0.472356	-0.114574	-0.982007	-0.150118
36434		0.488797	0.076525	-0.869035	0.864756	-0.174059	0.471063	-0.115215	-0.981757	-0.151255
36435		0.488412	0.077086	-0.869202	0.864895	-0.174952	0.470476	-0.115802	-0.981555	-0.152120
36436		0.488591	0.077525	-0.869062	0.864802	-0.175158	0.470571	-0.115742	-0.981483	-0.152624
36437		0.489166	0.077830	-0.868711	0.864479	-0.175426	0.471065	-0.115731	-0.981411	-0.153095
36438		0.490190	0.077685	-0.868147	0.863819	-0.176217	0.471978	-0.116317	-0.981281	-0.153486
36439		0.491362	0.077298	-0.867519	0.863090	-0.176781	0.473101	-0.116790	-0.981210	-0.153579
36440		0.492425	0.076618	-0.866976	0.862530	-0.176230	0.474326	-0.116445	-0.981363	-0.152865
36441		0.493713	0.075381	-0.866352	0.861837	-0.175441	0.475875	-0.116122	-0.981600	-0.151583
36442		0.494822	0.073890	-0.865847	0.861140	-0.175356	0.477168	-0.116574	-0.981728	-0.150400
36443		0.495859	0.072370	-0.865382	0.860406	-0.175869	0.478300	-0.117579	-0.981750	-0.149473
36444		0.496622	0.070889	-0.865067	0.859799	-0.176584	0.479128	-0.118793	-0.981729	-0.148646
36445		0.497287	0.069483	-0.864799	0.859251	-0.177284	0.479853	-0.119973	-0.981704	-0.147864
36446		0.497730	0.068396	-0.864631	0.858865	-0.177821	0.480344	-0.120896	-0.981683	-0.147250
36447		0.498122	0.067330	-0.864489	0.858471	-0.178646	0.480742	-0.122069	-0.981607	-0.146788
36448		0.498479	0.066321	-0.864361	0.858140	-0.179146	0.481146	-0.122937	-0.981584	-0.146213
36449		0.498709	0.065489	-0.864292	0.857985	-0.178902	0.481514	-0.123090	-0.981685	-0.145409
36450		0.499114	0.064676	-0.864119	0.857701	-0.178915	0.482016	-0.123429	-0.981736	-0.144772
36451		0.499859	0.063628	-0.863767	0.857075	-0.179987	0.482728	-0.124752	-0.981609	-0.144502
36452		0.501138	0.062554	-0.863103	0.856151	-0.181015	0.483982	-0.125960	-0.981489	-0.144269
36453		0.502487	0.061419	-0.862401	0.855169	-0.182119	0.485303	-0.127253	-0.981356	-0.144036
36454		0.503789	0.060011	-0.861740	0.854156	-0.183463	0.486579	-0.128897	-0.981193	-0.143686
36456		0.505969	0.056438	-0.860704	0.852509	-0.184549	0.489050	-0.131241	-0.981202	-0.141490
36457		0.507232	0.054786	-0.860067	0.851707	-0.184227	0.490566	-0.131571	-0.981356	-0.140108
36458		0.508925	0.053132	-0.859170	0.850351	-0.186151	0.492189	-0.133784	-0.981083	-0.139918
36459		0.511032	0.051815	-0.857999	0.848659	-0.188895	0.494062	-0.136472	-0.980629	-0.140504
36460		0.513761	0.050798	-0.856428	0.846509	-0.192379	0.496400	-0.139543	-0.980005	-0.141838
36461		0.517685	0.050902	-0.854056	0.843703	-0.196067	0.499724	-0.142015	-0.979268	-0.144447
36462		0.521908	0.054003	-0.851291	0.841006	-0.199358	0.502956	-0.142550	-0.978438	-0.149464
36463		0.524711	0.062013	-0.849019	0.839092	-0.205845	0.503540	-0.143540	-0.976618	-0.160043
36464		0.525997	0.070010	-0.847600	0.838472	-0.209608	0.503019	-0.142447	-0.975276	-0.168955
36465		0.526915	0.073367	-0.846746	0.839324	-0.201726	0.504818	-0.133774	-0.976690	-0.167871
36466		0.529726	0.074889	-0.844856	0.838574	-0.195644	0.508445	-0.127214	-0.977811	-0.166438
36467		0.532783	0.074112	-0.843001	0.837020	-0.192891	0.512045	-0.124659	-0.978417	-0.164802
36468		0.536257	0.071784	-0.840997	0.835027	-0.190454	0.516194	-0.123117	-0.979068	-0.162074
36469		0.538373	0.069600	-0.839828	0.833949	-0.187306	0.519081	-0.121176	-0.979833	-0.158883
36470		0.538633	0.067826	-0.839806	0.834293	-0.182057	0.520394	-0.117597	-0.980946	-0.154649
36471		0.536869	0.066785	-0.841018	0.835931	-0.176787	0.519582	-0.113981	-0.981981	-0.150739
36472		0.531620	0.066122	-0.844398	0.839895	-0.169863	0.515484	-0.109347	-0.983247	-0.145838
36473		0.523449	0.066983	-0.849420	0.845875	-0.160720	0.508591	-0.102452	-0.984725	-0.140788
36474		0.513274	0.069131	-0.855436	0.853045	-0.150439	0.499682	-0.094147	-0.986199	-0.136189
36475		0.501292	0.072765	-0.862213	0.861169	-0.138951	0.488958	-0.084226	-0.987622	-0.132318
36476		0.488258	0.075661	-0.869414	0.869637	-0.125568	0.477456	-0.073046	-0.989196	-0.127108
36477		0.473984	0.078685	-0.877011	0.878136	-0.115685	0.464213	-0.064930	-0.990164	-0.123929
36478		0.458668	0.081165	-0.884893	0.886760	-0.105996	0.449913	-0.057278	-0.991049	-0.120591
36479		0.441827	0.082699	-0.893280	0.895791	-0.094434	0.434327	-0.048437	-0.992090	-0.115805
36480		0.424604	0.082614	-0.901602	0.904522	-0.082026	0.418463	-0.039384	-0.993200	-0.109555
36481		0.406751	0.081738	-0.909875	0.912922	-0.072964	0.401558	-0.033566	-0.993979	-0.104299
36482		0.387002	0.080207	-0.918584	0.921555	-0.067218	0.382384	-0.031076	-0.994509	-0.099929
36483		0.367733	0.077733	-0.926677	0.929474	-0.061968	0.363645	-0.029157	-0.995047	-0.095038
36484		0.349182	0.074863	-0.934060	0.936577	-0.059697	0.345339	-0.029907	-0.995405	-0.090960
36485		0.331043	0.072071	-0.940859	0.943096	-0.058366	0.327359	-0.031321	-0.995690	-0.087292
36486		0.313314	0.070856	-0.947003	0.949251	-0.052262	0.310147	-0.027516	-0.996116	-0.083635
36487		0.295766	0.069842	-0.952704	0.955108	-0.039420	0.293622	-0.017048	-0.996779	-0.078365
36488		0.280117	0.066876	-0.957633	0.959944	-0.026265	0.278959	-0.006496	-0.997416	-0.071554
36489		0.266924	0.063841	-0.961601	0.963712	-0.021141	0.266107	-0.003340	-0.997736	-0.067168
36490		0.256165	0.060626	-0.964730	0.966590	-0.025453	0.255060	-0.009093	-0.997836	-0.065120
36491		0.246607	0.058382	-0.967355	0.969034	-0.027798	0.245357	-0.012566	-0.997907	-0.063429
36492		0.237708	0.056404	-0.969698	0.971235	-0.028264	0.236441	-0.014071	-0.998008	-0.061500
36493		0.229320	0.054313	-0.971835	0.973223	-0.028993	0.228027	-0.015792	-0.998103	-0.059507
36494		0.220451	0.051949	-0.974014	0.975204	-0.031672	0.219031	-0.019471	-0.998147	-0.057643
36495		0.210743	0.050018	-0.976261	0.977222	-0.036308	0.209090	-0.024988	-0.998088	-0.056530
36496		0.199952	0.049004	-0.978579	0.979370	-0.039785	0.198122	-0.029224	-0.998006	-0.055948
36497		0.188632	0.049211	-0.980814	0.981538	-0.041610	0.186684	-0.031625	-0.997921	-0.056151
36498		0.178780	0.050138	-0.982611	0.983234	-0.045529	0.176571	-0.035884	-0.997704	-0.057437
36499		0.171244	0.051158	-0.983899	0.984302	-0.052180	0.168601	-0.042715	-0.997326	-0.059291
36500		0.166107	0.051822	-0.984745	0.984961	-0.056863	0.163151	-0.047540	-0.997036	-0.060488
36501		0.162670	0.052183	-0.985300	0.985469	-0.058064	0.159623	-0.048881	-0.996948	-0.060870
36502		0.160531	0.052367	-0.985641	0.985894	-0.056414	0.157575	-0.047353	-0.997033	-0.060684
36503		0.159249	0.052220	-0.985856	0.986164	-0.055000	0.156386	-0.046056	-0.997120	-0.060257
36504		0.159049	0.052012	-0.985900	0.986209	-0.054661	0.156215	-0.045765	-0.997149	-0.059989
36505		0.159431	0.051604	-0.985859	0.986017	-0.057383	0.156453	-0.048498	-0.997018	-0.060031
36506		0.159751	0.051656	-0.985805	0.985788	-0.060925	0.156556	-0.051973	-0.996805	-0.060655
36507		0.159813	0.052172	-0.985768	0.985615	-0.064049	0.156398	-0.054978	-0.996582	-0.061657
36508		0.159805	0.052486	-0.985752	0.985449	-0.067060	0.156185	-0.057907	-0.996367	-0.062439
36509		0.160066	0.052737	-0.985697	0.985362	-0.067877	0.156380	-0.058659	-0.996299	-0.062830
36510		0.160715	0.052543	-0.985601	0.985192	-0.068970	0.156971	-0.059729	-0.996234	-0.062849
36511		0.162147	0.052443	-0.985372	0.984766	-0.072156	0.158207	-0.062804	-0.996014	-0.063344
36512		0.164392	0.052517	-0.984996	0.984131	-0.076353	0.160177	-0.066796	-0.995697	-0.064235
