// Start Time: Unknown
// Update Rate: 100.0Hz
// Filter Profile: human (46.1)
// Option Flags: AHS Disabled ICC Disabled 
// Firmware Version: 4.0.2
PacketCounter	SampleTimeFine	Year	Month	Day	Second	UTC_Nano	UTC_Year	UTC_Month	UTC_Day	UTC_Hour	UTC_Minute	UTC_Second	UTC_Valid	Acc_X	Acc_Y	Acc_Z	Gyr_X	Gyr_Y	Gyr_Z	Mag_X	Mag_Y	Mag_Z	Mat[1][1]	Mat[2][1]	Mat[3][1]	Mat[1][2]	Mat[2][2]	Mat[3][2]	Mat[1][3]	Mat[2][3]	Mat[3][3]
03583														0.015173	9.109743	-3.736056	-0.002551	-0.016452	0.036099	-0.192139	-0.643799	0.671387	-0.444898	0.895542	0.008444	0.333934	0.157132	0.929407	0.830996	0.416311	-0.368959
03584														0.027222	9.120664	-3.704584	0.000567	-0.014687	0.034551	-0.189697	-0.650146	0.671631	-0.444558	0.895709	0.008584	0.334187	0.156957	0.929346	0.831076	0.416017	-0.369110
03585														-0.015057	9.145453	-3.757319	0.011387	-0.015240	0.034850	-0.181152	-0.647949	0.669434	-0.444262	0.895854	0.008736	0.334506	0.156823	0.929254	0.831106	0.415754	-0.369339
03586														-0.044114	9.100748	-3.752606	0.012541	-0.009772	0.027264	-0.189697	-0.650146	0.662842	-0.443986	0.895990	0.008818	0.334819	0.156768	0.929150	0.831127	0.415482	-0.369598
03587														-0.054992	9.068488	-3.757969	0.015658	-0.008010	0.025714	-0.187500	-0.650146	0.669434	-0.443781	0.896091	0.008911	0.335134	0.156733	0.929043	0.831110	0.415278	-0.369866
03588														-0.054763	9.006910	-3.718940	0.019406	-0.008444	0.019780	-0.189697	-0.647949	0.671387	-0.443560	0.896200	0.008934	0.335462	0.156772	0.928918	0.831096	0.415028	-0.370178
03589														-0.084809	9.072358	-3.695934	0.014611	-0.003631	0.017841	-0.187744	-0.647949	0.667236	-0.443418	0.896270	0.008970	0.335732	0.156803	0.928815	0.831062	0.414865	-0.370436
03590														-0.040919	9.077569	-3.731053	0.014731	-0.001236	0.014965	-0.187744	-0.645752	0.671387	-0.443264	0.896346	0.008976	0.336008	0.156863	0.928705	0.831033	0.414677	-0.370711
03591														-0.048919	9.066260	-3.763426	0.007404	0.000828	0.017077	-0.191895	-0.650146	0.669434	-0.443161	0.896396	0.009022	0.336215	0.156872	0.928628	0.831004	0.414565	-0.370902
03592														-0.032561	9.057550	-3.746924	0.012348	0.003931	0.011848	-0.189941	-0.645752	0.669189	-0.443061	0.896446	0.009020	0.336459	0.156949	0.928527	0.830959	0.414429	-0.371155
03593														-0.049862	9.044437	-3.738551	0.021579	0.006814	0.010067	-0.191895	-0.650146	0.671387	-0.443032	0.896461	0.009023	0.336753	0.157079	0.928398	0.830855	0.414349	-0.371477
03594														-0.052288	9.022872	-3.713056	0.018583	0.007450	0.008744	-0.183350	-0.650146	0.673828	-0.442975	0.896489	0.009008	0.337034	0.157208	0.928275	0.830772	0.414238	-0.371786
03595														-0.038373	9.053984	-3.710530	0.015001	0.009074	0.004918	-0.183350	-0.650146	0.673828	-0.442981	0.896486	0.008971	0.337250	0.157358	0.928171	0.830680	0.414188	-0.372047
03596														-0.008117	9.027523	-3.749367	0.007299	0.011396	0.003066	-0.185547	-0.645752	0.669189	-0.442962	0.896496	0.008900	0.337408	0.157500	0.928089	0.830627	0.414111	-0.372252
03597														-0.039008	8.983160	-3.743885	0.001215	0.015792	-0.001002	-0.187744	-0.650146	0.673828	-0.443044	0.896456	0.008834	0.337484	0.157646	0.928037	0.830552	0.414143	-0.372384
03598														-0.070126	9.049200	-3.719638	0.003044	0.017135	-0.004678	-0.181152	-0.650146	0.671631	-0.443107	0.896426	0.008721	0.337573	0.157836	0.927972	0.830482	0.414135	-0.372548
03599														-0.049526	9.021468	-3.716502	0.003959	0.017806	-0.006515	-0.187988	-0.641602	0.675781	-0.443225	0.896369	0.008610	0.337647	0.158042	0.927910	0.830389	0.414180	-0.372704
03600														-0.025210	9.014368	-3.741111	0.012652	0.019763	-0.002492	-0.187988	-0.641602	0.675781	-0.443293	0.896336	0.008524	0.337831	0.158254	0.927807	0.830278	0.414170	-0.372963
03601														-0.004712	8.986174	-3.739078	0.019324	0.015082	-0.011102	-0.189697	-0.650146	0.671631	-0.443404	0.896283	0.008361	0.338012	0.158565	0.927688	0.830145	0.414166	-0.373262
03602														-0.062633	8.988111	-3.724466	0.018532	0.016805	-0.012141	-0.185547	-0.643555	0.669189	-0.443486	0.896244	0.008184	0.338204	0.158882	0.927564	0.830023	0.414130	-0.373575
03603														0.025994	9.038490	-3.675479	0.014160	0.020150	-0.017009	-0.192139	-0.643799	0.671387	-0.443659	0.896160	0.007985	0.338316	0.159225	0.927464	0.829885	0.414179	-0.373826
03604														0.023111	9.078270	-3.689569	0.001260	0.022015	-0.020481	-0.183594	-0.645752	0.673584	-0.443822	0.896082	0.007752	0.338323	0.159546	0.927406	0.829795	0.414226	-0.373975
03605														0.051398	9.052383	-3.726932	-0.009809	0.025221	-0.027629	-0.187744	-0.643555	0.671387	-0.444072	0.895960	0.007473	0.338189	0.159884	0.927397	0.829716	0.414359	-0.374003
03606														0.031540	9.040227	-3.716262	-0.007232	0.026058	-0.023377	-0.187744	-0.650146	0.673828	-0.444270	0.895864	0.007221	0.338112	0.160199	0.927371	0.829641	0.414445	-0.374074
03607														0.060103	9.014377	-3.753575	-0.002119	0.029643	-0.023175	-0.196289	-0.650146	0.675781	-0.444543	0.895730	0.007001	0.338062	0.160529	0.927332	0.829516	0.414605	-0.374174
03608														0.038739	9.051447	-3.684255	-0.001992	0.032040	-0.026048	-0.187744	-0.645752	0.669189	-0.444808	0.895600	0.006757	0.338018	0.160883	0.927287	0.829391	0.414749	-0.374291
03609														0.030148	9.000398	-3.702334	0.004251	0.035567	-0.029139	-0.187500	-0.652100	0.671631	-0.445150	0.895432	0.006504	0.337993	0.161293	0.927224	0.829218	0.414952	-0.374450
03610														0.049197	8.972777	-3.698980	-0.000024	0.035785	-0.032589	-0.189697	-0.650146	0.675781	-0.445474	0.895274	0.006205	0.337926	0.161720	0.927175	0.829071	0.415129	-0.374578
03611														0.057159	8.974401	-3.740058	-0.003287	0.038365	-0.025574	-0.185547	-0.650146	0.671631	-0.445826	0.895099	0.005995	0.337854	0.162067	0.927140	0.828911	0.415369	-0.374667
03612														0.043475	8.942787	-3.743772	-0.004289	0.040824	-0.025150	-0.189697	-0.647949	0.669189	-0.446160	0.894935	0.005784	0.337789	0.162409	0.927104	0.828758	0.415590	-0.374760
03613														0.079838	8.977372	-3.690511	-0.002082	0.041920	-0.024855	-0.187744	-0.647949	0.667236	-0.446539	0.894747	0.005594	0.337730	0.162754	0.927065	0.828578	0.415860	-0.374859
03614														0.049293	8.994017	-3.725294	-0.001244	0.045727	-0.028098	-0.192139	-0.645752	0.673584	-0.446937	0.894549	0.005378	0.337671	0.163135	0.927020	0.828387	0.416135	-0.374974
03615														0.078398	8.968163	-3.762697	-0.003869	0.046106	-0.025465	-0.189941	-0.643799	0.671387	-0.447353	0.894342	0.005199	0.337594	0.163477	0.926987	0.828194	0.416446	-0.375057
03616														0.078109	8.968412	-3.762109	-0.008423	0.048266	-0.020578	-0.191895	-0.647949	0.669189	-0.447734	0.894152	0.005069	0.337524	0.163755	0.926964	0.828017	0.416744	-0.375116
03617														0.042915	9.004531	-3.782414	-0.008272	0.048747	-0.015153	-0.189941	-0.647949	0.673584	-0.448137	0.893951	0.004995	0.337456	0.163988	0.926947	0.827826	0.417085	-0.375158
03618														0.039607	8.983998	-3.754429	-0.006424	0.050102	-0.018814	-0.189697	-0.647949	0.669189	-0.448533	0.893753	0.004886	0.337403	0.164260	0.926919	0.827633	0.417402	-0.375231
03619														0.067659	8.998286	-3.805041	-0.001628	0.045298	-0.016854	-0.187744	-0.643555	0.671387	-0.448913	0.893562	0.004783	0.337383	0.164535	0.926877	0.827436	0.417701	-0.375335
03620														0.013908	9.021625	-3.816129	-0.003824	0.044209	-0.017145	-0.190186	-0.639404	0.673584	-0.449253	0.893393	0.004664	0.337357	0.164806	0.926838	0.827262	0.417958	-0.375432
03621														0.052870	9.016222	-3.749251	-0.004525	0.042804	-0.016768	-0.185547	-0.643555	0.669189	-0.449612	0.893213	0.004553	0.337314	0.165068	0.926807	0.827085	0.418239	-0.375509
03622														0.032686	9.034519	-3.825093	-0.004436	0.039676	-0.015352	-0.187744	-0.643555	0.671387	-0.449898	0.893069	0.004433	0.337299	0.165320	0.926768	0.826935	0.418446	-0.375608
03623														-0.004477	9.009669	-3.804943	-0.009726	0.030077	-0.016708	-0.189941	-0.645752	0.675781	-0.450151	0.892942	0.004275	0.337213	0.165560	0.926757	0.826832	0.418622	-0.375638
03624														0.026547	9.054329	-3.809824	-0.005860	0.024594	-0.012919	-0.194092	-0.645752	0.671387	-0.450304	0.892866	0.004121	0.337197	0.165783	0.926722	0.826755	0.418697	-0.375724
03625														0.029782	9.075465	-3.836392	-0.009823	0.020942	-0.016431	-0.187500	-0.650146	0.667236	-0.450481	0.892777	0.003931	0.337111	0.166020	0.926711	0.826694	0.418791	-0.375754
03626														0.058290	9.059374	-3.800282	-0.012423	0.016502	-0.024694	-0.187744	-0.645752	0.671387	-0.450625	0.892706	0.003641	0.336976	0.166321	0.926706	0.826671	0.418824	-0.375769
03627														0.017228	9.074787	-3.793004	-0.013662	0.009347	-0.029418	-0.183350	-0.647949	0.665039	-0.450749	0.892644	0.003287	0.336799	0.166657	0.926710	0.826675	0.418821	-0.375763
03628														0.053714	9.060390	-3.797927	-0.011993	0.004697	-0.034216	-0.192139	-0.641602	0.669189	-0.450823	0.892609	0.002854	0.336621	0.167051	0.926704	0.826707	0.418740	-0.375781
03629														0.031847	9.048288	-3.787069	-0.013008	-0.003188	-0.040399	-0.187744	-0.647949	0.671387	-0.450881	0.892581	0.002351	0.336400	0.167489	0.926705	0.826766	0.418624	-0.375782
03630														0.042637	9.040470	-3.768523	-0.009135	-0.006739	-0.044897	-0.183594	-0.641602	0.669189	-0.450894	0.892576	0.001789	0.336209	0.167982	0.926685	0.826836	0.418438	-0.375834
03631														0.036608	8.980013	-3.726821	-0.014889	-0.006210	-0.049024	-0.187744	-0.645752	0.666992	-0.450955	0.892546	0.001195	0.335934	0.168489	0.926693	0.826915	0.418298	-0.375817
03632														0.034039	8.940611	-3.711915	-0.019984	-0.009808	-0.049244	-0.181152	-0.647949	0.667236	-0.450958	0.892545	0.000574	0.335628	0.168980	0.926715	0.827038	0.418101	-0.375766
03633														0.032375	8.971810	-3.664043	-0.035587	-0.016746	-0.049860	-0.183594	-0.645752	0.673584	-0.450934	0.892557	-0.000068	0.335178	0.169407	0.926799	0.827233	0.417903	-0.375557
03634														0.037331	8.975171	-3.701208	-0.054183	-0.014659	-0.036917	-0.183594	-0.643555	0.665039	-0.450849	0.892600	-0.000599	0.334643	0.169649	0.926949	0.827496	0.417713	-0.375188
03635														0.063154	9.052825	-3.787165	-0.067935	-0.024115	-0.024625	-0.185547	-0.647949	0.667236	-0.450680	0.892685	-0.001034	0.334038	0.169716	0.927154	0.827832	0.417504	-0.374679
03636														0.048263	9.093796	-3.752970	-0.070778	-0.021071	-0.028810	-0.179199	-0.645752	0.667236	-0.450526	0.892762	-0.001507	0.333400	0.169813	0.927366	0.828173	0.417300	-0.374152
03637														0.037955	9.045146	-3.765576	-0.053536	-0.024296	-0.028718	-0.187744	-0.645752	0.673584	-0.450368	0.892841	-0.001980	0.332897	0.169977	0.927517	0.828462	0.417065	-0.373776
03638														0.023117	9.075921	-3.806577	-0.028519	-0.032957	-0.025364	-0.181396	-0.645752	0.667236	-0.450089	0.892980	-0.002465	0.332635	0.170218	0.927567	0.828718	0.416668	-0.373650
03639														0.080002	9.034704	-3.807167	-0.018459	-0.030103	-0.013774	-0.181396	-0.645752	0.673828	-0.449834	0.893108	-0.002821	0.332489	0.170396	0.927586	0.828915	0.416321	-0.373598
03640														0.047531	9.060805	-3.768261	-0.008531	-0.025759	-0.015879	-0.181152	-0.647949	0.669434	-0.449581	0.893234	-0.003193	0.332436	0.170637	0.927561	0.829074	0.415952	-0.373658
03641														0.051097	9.051118	-3.708613	-0.013028	-0.014493	-0.011252	-0.177246	-0.643555	0.667236	-0.449446	0.893301	-0.003468	0.332347	0.170814	0.927560	0.829183	0.415735	-0.373657
03642														0.047226	9.091852	-3.720308	-0.020110	-0.007648	-0.014885	-0.179199	-0.647949	0.667236	-0.449344	0.893351	-0.003766	0.332196	0.171001	0.927580	0.829298	0.415551	-0.373606
03643														0.045566	9.092525	-3.718683	-0.015684	0.000092	-0.018558	-0.185303	-0.650146	0.665039	-0.449354	0.893345	-0.004054	0.332052	0.171232	0.927589	0.829351	0.415469	-0.373581
03644														0.103879	9.050725	-3.720827	0.001710	0.002866	-0.017347	-0.181152	-0.650146	0.671631	-0.449361	0.893340	-0.004329	0.332065	0.171528	0.927529	0.829341	0.415358	-0.373725
03645														0.059120	8.964810	-3.793565	0.024508	0.005385	-0.015971	-0.183350	-0.645752	0.669434	-0.449407	0.893316	-0.004574	0.332266	0.171904	0.927388	0.829236	0.415255	-0.374073
03646														0.042355	8.910737	-3.773598	0.041370	0.010803	-0.004963	-0.179199	-0.645752	0.669434	-0.449427	0.893304	-0.004703	0.332674	0.172252	0.927177	0.829062	0.415134	-0.374594
03647														-0.000330	8.902926	-3.743741	0.038958	0.010435	-0.003795	-0.179199	-0.647949	0.671631	-0.449474	0.893280	-0.004815	0.333049	0.172578	0.926982	0.828886	0.415051	-0.375076
03648														-0.003285	8.880772	-3.719379	0.025105	0.016355	0.005428	-0.185547	-0.643555	0.666992	-0.449504	0.893265	-0.004833	0.333366	0.172770	0.926832	0.828742	0.415004	-0.375444
03649														-0.044213	8.874014	-3.687113	0.000882	0.019383	0.019675	-0.175049	-0.643555	0.665039	-0.449547	0.893244	-0.004695	0.333531	0.172728	0.926781	0.828652	0.415066	-0.375574
03650														-0.034587	8.915996	-3.741374	-0.004836	0.023504	0.019566	-0.175049	-0.647949	0.673828	-0.449600	0.893218	-0.004551	0.333658	0.172668	0.926746	0.828572	0.415147	-0.375661
03651														-0.004319	8.939736	-3.719308	-0.001975	0.020472	0.023761	-0.185547	-0.650146	0.669434	-0.449639	0.893200	-0.004370	0.333818	0.172579	0.926705	0.828487	0.415223	-0.375764
03652														0.003493	9.021560	-3.787382	0.011217	0.014784	0.027202	-0.183594	-0.641602	0.673584	-0.449586	0.893227	-0.004192	0.334114	0.172518	0.926610	0.828396	0.415190	-0.376002
03653														-0.020035	9.067516	-3.778373	0.020536	0.014583	0.026875	-0.177246	-0.641357	0.669434	-0.449565	0.893239	-0.004005	0.334475	0.172494	0.926484	0.828262	0.415175	-0.376313
03654														-0.028600	9.104965	-3.752535	0.025724	0.015056	0.028506	-0.183594	-0.643555	0.673584	-0.449502	0.893271	-0.003810	0.334908	0.172479	0.926330	0.828121	0.415112	-0.376693
03655														-0.019707	9.084940	-3.768609	0.020543	0.014589	0.026880	-0.177002	-0.647949	0.671631	-0.449481	0.893283	-0.003622	0.335268	0.172455	0.926204	0.827987	0.415097	-0.377004
03656														-0.032369	9.101591	-3.715314	0.020156	0.011260	0.018918	-0.181396	-0.645752	0.673828	-0.449423	0.893312	-0.003534	0.335604	0.172505	0.926073	0.827882	0.415012	-0.377327
03657														-0.002674	9.115369	-3.767777	0.014230	0.005783	0.013649	-0.183594	-0.643555	0.673584	-0.449373	0.893337	-0.003503	0.335853	0.172574	0.925970	0.827808	0.414930	-0.377580
03658														-0.043984	9.108784	-3.735453	0.008736	0.009179	0.012073	-0.181152	-0.647949	0.667236	-0.449320	0.893364	-0.003481	0.336068	0.172634	0.925881	0.827749	0.414848	-0.377799
03659														-0.031360	9.070131	-3.764103	0.007644	0.004435	0.004478	-0.181396	-0.645752	0.669434	-0.449290	0.893379	-0.003539	0.336221	0.172757	0.925803	0.827704	0.414764	-0.377991
03660														-0.062140	9.025294	-3.759461	0.010593	0.000208	0.001803	-0.181396	-0.645752	0.671631	-0.449214	0.893417	-0.003650	0.336389	0.172921	0.925711	0.827677	0.414615	-0.378214
03661														-0.099134	8.999525	-3.741124	0.013453	-0.000884	-0.002278	-0.181396	-0.643555	0.673584	-0.449163	0.893442	-0.003792	0.336559	0.173128	0.925610	0.827636	0.414474	-0.378459
03662														-0.106421	8.947931	-3.760672	0.017193	-0.006834	-0.003916	-0.179199	-0.650146	0.676025	-0.449036	0.893505	-0.003981	0.336768	0.173368	0.925490	0.827620	0.414238	-0.378752
03663														-0.121752	8.955557	-3.779649	0.015346	-0.008195	-0.000257	-0.179443	-0.641602	0.673584	-0.448917	0.893564	-0.004131	0.336963	0.173564	0.925382	0.827605	0.414028	-0.379014
03664														-0.101851	8.927482	-3.777581	0.018958	-0.014611	-0.007309	-0.181641	-0.641602	0.675781	-0.448733	0.893655	-0.004386	0.337170	0.173845	0.925254	0.827620	0.413713	-0.379324
03665														-0.124935	8.893273	-3.742151	0.016099	-0.013518	-0.003227	-0.181396	-0.645752	0.669434	-0.448580	0.893731	-0.004583	0.337358	0.174071	0.925143	0.827626	0.413454	-0.379592
03666														-0.104928	8.865298	-3.739857	0.013550	-0.016288	0.000803	-0.181396	-0.645752	0.673828	-0.448363	0.893839	-0.004763	0.337557	0.174252	0.925036	0.827663	0.413144	-0.379850
03667														-0.074698	8.918713	-3.673557	0.005242	-0.018536	0.000706	-0.181396	-0.647949	0.678223	-0.448155	0.893942	-0.004943	0.337673	0.174399	0.924966	0.827728	0.412859	-0.380018
03668														-0.068148	8.960495	-3.728016	-0.006366	-0.016294	-0.000672	-0.179443	-0.641602	0.673584	-0.447940	0.894049	-0.005137	0.337701	0.174511	0.924935	0.827833	0.412580	-0.380092
03669														-0.068910	8.960942	-3.726928	-0.017663	-0.017915	-0.002100	-0.181396	-0.641602	0.669189	-0.447747	0.894145	-0.005342	0.337615	0.174588	0.924952	0.827973	0.412341	-0.380047
03670														-0.084634	8.969817	-3.742883	-0.016869	-0.019637	-0.001062	-0.179199	-0.647949	0.671631	-0.447511	0.894261	-0.005550	0.337552	0.174660	0.924961	0.828126	0.412056	-0.380022
03671														-0.070307	8.962185	-3.723912	-0.015331	-0.016350	0.003613	-0.177002	-0.647949	0.678223	-0.447311	0.894360	-0.005696	0.337511	0.174696	0.924969	0.828251	0.411827	-0.380000
03672														-0.070850	8.962671	-3.722731	-0.010757	-0.018484	-0.001262	-0.177246	-0.643555	0.677979	-0.447081	0.894474	-0.005909	0.337494	0.174799	0.924956	0.828382	0.411536	-0.380029
03673														-0.032773	8.948314	-3.727935	-0.011070	-0.012681	-0.009490	-0.173096	-0.643555	0.676025	-0.446956	0.894534	-0.006162	0.337429	0.174969	0.924947	0.828475	0.411332	-0.380045
03674														-0.028389	8.938765	-3.668220	-0.011418	-0.014355	-0.005164	-0.177246	-0.643555	0.671631	-0.446762	0.894630	-0.006399	0.337398	0.175106	0.924933	0.828593	0.411066	-0.380077
03675														-0.066144	8.913864	-3.647674	-0.012040	-0.006629	-0.005058	-0.175049	-0.645752	0.671631	-0.446673	0.894673	-0.006588	0.337345	0.175233	0.924928	0.828663	0.410918	-0.380085
03676														-0.044569	8.947864	-3.683621	-0.011296	-0.001620	-0.001421	-0.179443	-0.643555	0.675781	-0.446589	0.894714	-0.006739	0.337320	0.175337	0.924917	0.828718	0.410785	-0.380108
03677														-0.090474	8.912049	-3.694508	-0.012878	-0.000114	0.004788	-0.179443	-0.641602	0.677979	-0.446520	0.894748	-0.006812	0.337304	0.175372	0.924917	0.828762	0.410696	-0.380109
03678														-0.083930	8.893250	-3.707592	-0.006947	0.005364	0.010051	-0.175049	-0.645752	0.673828	-0.446446	0.894785	-0.006821	0.337382	0.175385	0.924886	0.828770	0.410610	-0.380184
03679														-0.095293	8.861718	-3.711114	-0.008919	0.001597	0.016577	-0.172852	-0.645752	0.671631	-0.446351	0.894832	-0.006778	0.337452	0.175330	0.924870	0.828792	0.410530	-0.380222
03680														-0.116579	8.929689	-3.726867	-0.014635	0.005722	0.016466	-0.177246	-0.645752	0.676025	-0.446268	0.894874	-0.006741	0.337477	0.175264	0.924874	0.828827	0.410467	-0.380214
03681														-0.081332	8.934885	-3.717257	-0.027079	0.016426	0.016667	-0.175293	-0.641602	0.675781	-0.446296	0.894861	-0.006641	0.337397	0.175134	0.924928	0.828845	0.410551	-0.380085
03682														-0.132970	8.959110	-3.725758	-0.035558	0.018511	0.022049	-0.173096	-0.641357	0.673828	-0.446292	0.894864	-0.006496	0.337285	0.174928	0.925008	0.828892	0.410633	-0.379893
03683														-0.062181	9.030257	-3.747523	-0.034940	0.023059	0.020278	-0.175049	-0.643555	0.671631	-0.446363	0.894830	-0.006338	0.337155	0.174734	0.925092	0.828907	0.410790	-0.379691
03684														-0.074362	9.039767	-3.762119	-0.029619	0.025934	0.019045	-0.174805	-0.647949	0.671631	-0.446435	0.894795	-0.006198	0.337073	0.174582	0.925150	0.828901	0.410930	-0.379551
03685														-0.086500	9.049050	-3.777299	-0.022102	0.029902	0.018107	-0.177246	-0.641602	0.671387	-0.446570	0.894729	-0.006034	0.337041	0.174460	0.925185	0.828842	0.411126	-0.379468
03686														-0.080134	9.070687	-3.802934	-0.013046	0.039097	0.013570	-0.185547	-0.645752	0.671387	-0.446777	0.894626	-0.005892	0.337068	0.174425	0.925182	0.828720	0.411364	-0.379478
03687														-0.132904	9.033223	-3.772725	-0.013129	0.042237	0.012171	-0.185791	-0.643799	0.675781	-0.447034	0.894499	-0.005736	0.337083	0.174393	0.925182	0.828575	0.411654	-0.379479
03688														-0.143149	9.001883	-3.776003	-0.011143	0.046012	0.005654	-0.181396	-0.643555	0.675781	-0.447330	0.894351	-0.005620	0.337102	0.174423	0.925170	0.828407	0.411962	-0.379512
03689														-0.159173	8.989583	-3.765584	-0.007014	0.043387	0.011981	-0.181396	-0.645752	0.673828	-0.447597	0.894219	-0.005461	0.337167	0.174417	0.925147	0.828236	0.412252	-0.379570
03690														-0.113915	8.996038	-3.798282	-0.008010	0.047796	0.004133	-0.179443	-0.641602	0.671387	-0.447905	0.894065	-0.005363	0.337204	0.174481	0.925122	0.828055	0.412558	-0.379633
03691														-0.150692	9.011155	-3.791526	-0.007742	0.050668	0.006693	-0.179199	-0.643555	0.667236	-0.448251	0.893893	-0.005226	0.337239	0.174520	0.925101	0.827853	0.412915	-0.379684
03692														-0.094224	8.988325	-3.779451	-0.007736	0.050672	0.006698	-0.181396	-0.641357	0.665039	-0.448583	0.893727	-0.005098	0.337280	0.174566	0.925078	0.827657	0.413255	-0.379743
03693														-0.100813	8.977744	-3.810454	-0.005008	0.047176	0.005482	-0.181396	-0.645752	0.680176	-0.448903	0.893567	-0.004985	0.337332	0.174627	0.925047	0.827462	0.413575	-0.379819
03694														-0.102529	8.956887	-3.783059	-0.000971	0.037354	0.003777	-0.177246	-0.643555	0.671631	-0.449130	0.893453	-0.004931	0.337422	0.174724	0.924996	0.827302	0.413780	-0.379945
03695														-0.096953	8.977921	-3.810137	-0.001814	0.033536	0.007006	-0.183594	-0.645752	0.671631	-0.449332	0.893352	-0.004856	0.337508	0.174785	0.924953	0.827157	0.413972	-0.380050
03696														-0.119220	8.984667	-3.786019	-0.010782	0.033489	0.011278	-0.181396	-0.643555	0.669434	-0.449505	0.893265	-0.004752	0.337545	0.174778	0.924941	0.827048	0.414162	-0.380081
03697														-0.129663	8.953494	-3.788991	-0.021584	0.034030	0.010925	-0.179443	-0.639404	0.669189	-0.449698	0.893169	-0.004638	0.337485	0.174722	0.924974	0.826968	0.414393	-0.380003
03698														-0.145784	8.941786	-3.777259	-0.027267	0.029482	0.016470	-0.183594	-0.643555	0.669189	-0.449822	0.893107	-0.004500	0.337409	0.174600	0.925024	0.826931	0.414578	-0.379881
03699														-0.112045	8.987333	-3.779906	-0.030024	0.029391	0.013675	-0.179199	-0.645752	0.673828	-0.449967	0.893034	-0.004378	0.337292	0.174484	0.925089	0.826900	0.414783	-0.379725
03700														-0.096999	9.020197	-3.772992	-0.026109	0.029442	0.013190	-0.179443	-0.639404	0.673584	-0.450101	0.892967	-0.004271	0.337211	0.174396	0.925135	0.826860	0.414964	-0.379615
03701														-0.061425	9.025428	-3.762794	-0.022980	0.031220	0.011672	-0.185547	-0.647949	0.673828	-0.450268	0.892884	-0.004161	0.337143	0.174328	0.925173	0.826797	0.415173	-0.379523
03702														-0.065220	9.045262	-3.747150	-0.013928	0.028129	0.008807	-0.181641	-0.641602	0.675781	-0.450400	0.892818	-0.004097	0.337151	0.174328	0.925170	0.826722	0.415315	-0.379531
03703														-0.015402	9.041691	-3.720338	-0.012997	0.028813	0.006983	-0.181396	-0.645752	0.671631	-0.450563	0.892736	-0.004040	0.337144	0.174342	0.925170	0.826636	0.415485	-0.379532
03704														-0.007828	9.023006	-3.733261	-0.010873	0.033049	0.005896	-0.179443	-0.641602	0.669189	-0.450743	0.892645	-0.003986	0.337163	0.174382	0.925155	0.826530	0.415664	-0.379568
03705														-0.031283	8.959952	-3.740983	-0.016155	0.033779	0.011135	-0.179443	-0.641357	0.667236	-0.450933	0.892549	-0.003872	0.337148	0.174347	0.925167	0.826432	0.415883	-0.379540
03706														-0.038750	8.958575	-3.698642	-0.011534	0.035239	0.010290	-0.183594	-0.641602	0.671387	-0.451126	0.892452	-0.003773	0.337172	0.174349	0.925158	0.826317	0.416091	-0.379564
03707														-0.039297	8.929246	-3.742945	-0.017598	0.037701	0.014497	-0.181641	-0.641602	0.673584	-0.451337	0.892346	-0.003613	0.337161	0.174278	0.925175	0.826206	0.416348	-0.379523
03708														-0.048137	8.968268	-3.713126	-0.023365	0.036294	0.018636	-0.185791	-0.643555	0.673584	-0.451504	0.892263	-0.003427	0.337136	0.174151	0.925208	0.826126	0.416580	-0.379444
03709														-0.001973	8.975405	-3.743822	-0.028201	0.035571	0.020950	-0.183838	-0.639404	0.680176	-0.451675	0.892177	-0.003215	0.337067	0.173978	0.925266	0.826060	0.416836	-0.379305
03710														0.001332	8.976449	-3.741316	-0.027638	0.034572	0.023450	-0.181396	-0.643555	0.673584	-0.451802	0.892113	-0.002987	0.337039	0.173788	0.925312	0.826002	0.417051	-0.379194
03711														0.025409	8.949776	-3.735667	-0.018062	0.037210	0.025724	-0.181396	-0.643555	0.675781	-0.451971	0.892029	-0.002724	0.337075	0.173614	0.925332	0.825895	0.417305	-0.379149
03712														0.041722	8.982078	-3.729788	-0.011504	0.036891	0.022629	-0.183350	-0.645752	0.669434	-0.452122	0.891952	-0.002505	0.337166	0.173505	0.925319	0.825775	0.417513	-0.379181
03713														0.014680	9.008131	-3.691172	-0.013474	0.035075	0.020859	-0.187744	-0.645752	0.677979	-0.452290	0.891868	-0.002296	0.337218	0.173394	0.925321	0.825662	0.417739	-0.379178
03714														0.054200	8.964033	-3.741142	-0.020023	0.035404	0.023961	-0.187500	-0.650146	0.669434	-0.452433	0.891796	-0.002063	0.337242	0.173233	0.925342	0.825574	0.417960	-0.379127
03715														0.038889	8.952304	-3.729489	-0.028947	0.037335	0.019938	-0.185547	-0.647949	0.673828	-0.452623	0.891700	-0.001854	0.337162	0.173066	0.925403	0.825503	0.418233	-0.378981
03716														0.028525	9.031952	-3.711464	-0.038179	0.034437	0.021624	-0.185547	-0.645752	0.669189	-0.452775	0.891623	-0.001647	0.337017	0.172850	0.925496	0.825478	0.418486	-0.378755
03717														0.049498	9.077545	-3.803079	-0.039924	0.031897	0.018389	-0.187988	-0.643799	0.675781	-0.452925	0.891547	-0.001473	0.336840	0.172651	0.925597	0.825468	0.418730	-0.378507
03718														0.033613	9.066357	-3.790189	-0.036497	0.029801	0.016809	-0.185547	-0.645752	0.671387	-0.453047	0.891485	-0.001326	0.336697	0.172484	0.925680	0.825459	0.418931	-0.378304
03719														0.036269	9.067439	-3.787575	-0.020952	0.024395	0.019135	-0.183350	-0.647949	0.667236	-0.453133	0.891442	-0.001173	0.336679	0.172357	0.925711	0.825420	0.419075	-0.378231
03720														0.038418	9.067938	-3.786359	-0.005688	0.021234	0.009222	-0.187744	-0.645752	0.675781	-0.453216	0.891400	-0.001137	0.336746	0.172393	0.925680	0.825347	0.419151	-0.378306
03721														0.021346	9.055476	-3.776558	-0.003266	0.021596	0.008072	-0.183594	-0.641602	0.675781	-0.453316	0.891349	-0.001097	0.336824	0.172438	0.925643	0.825260	0.419239	-0.378397
03722														0.008242	9.064144	-3.793733	-0.006822	0.014539	0.009861	-0.179199	-0.643555	0.671631	-0.453324	0.891345	-0.001075	0.336902	0.172459	0.925610	0.825224	0.419239	-0.378476
03723														-0.027605	9.039283	-3.774035	-0.013925	0.015876	0.010462	-0.189941	-0.641602	0.669189	-0.453368	0.891323	-0.001035	0.336903	0.172439	0.925614	0.825199	0.419295	-0.378468
03724														-0.049055	9.006159	-3.736186	-0.018522	0.007688	0.008646	-0.181396	-0.645752	0.671631	-0.453335	0.891339	-0.001052	0.336869	0.172425	0.925629	0.825231	0.419266	-0.378431
03725														-0.040044	9.049165	-3.788358	-0.022470	0.004057	0.005087	-0.183594	-0.645752	0.673584	-0.453300	0.891357	-0.001107	0.336775	0.172416	0.925665	0.825289	0.419231	-0.378344
03726														-0.048072	9.039428	-3.818002	-0.022567	-0.001508	0.009325	-0.187744	-0.643555	0.666992	-0.453185	0.891416	-0.001159	0.336709	0.172382	0.925695	0.825379	0.419121	-0.378269
03727														-0.090670	9.034026	-3.783412	-0.017437	-0.004660	0.006946	-0.185791	-0.641602	0.673584	-0.453072	0.891473	-0.001229	0.336665	0.172379	0.925712	0.825459	0.419000	-0.378228
03728														-0.092520	8.973225	-3.742173	-0.011205	-0.009830	0.009553	-0.185547	-0.647949	0.673828	-0.452894	0.891563	-0.001299	0.336698	0.172383	0.925699	0.825543	0.418806	-0.378259
03729														-0.082151	8.975583	-3.782494	-0.004814	-0.012580	0.009310	-0.187744	-0.641602	0.669189	-0.452707	0.891658	-0.001377	0.336769	0.172412	0.925668	0.825617	0.418593	-0.378335
03730														-0.075028	9.026626	-3.763160	-0.007989	-0.017944	0.006778	-0.183594	-0.643555	0.671387	-0.452472	0.891777	-0.001504	0.336814	0.172455	0.925643	0.825727	0.418321	-0.378395
03731														-0.080895	9.046162	-3.748012	-0.015801	-0.018014	0.007738	-0.187744	-0.641602	0.669189	-0.452246	0.891892	-0.001617	0.336788	0.172451	0.925654	0.825862	0.418078	-0.378369
03732														-0.062231	9.059528	-3.755595	-0.023391	-0.018810	0.007235	-0.183350	-0.647949	0.673828	-0.452002	0.892015	-0.001744	0.336708	0.172427	0.925687	0.826027	0.417826	-0.378286
03733														-0.074102	9.098643	-3.725132	-0.027498	-0.024855	0.006528	-0.185547	-0.645752	0.669189	-0.451723	0.892156	-0.001894	0.336579	0.172385	0.925742	0.826233	0.417542	-0.378152
03734														-0.058755	9.082649	-3.777826	-0.025786	-0.025904	0.005736	-0.177246	-0.641602	0.671387	-0.451427	0.892305	-0.002065	0.336468	0.172366	0.925786	0.826440	0.417230	-0.378043
03735														-0.057406	9.043248	-3.762923	-0.018130	-0.028253	0.007624	-0.192139	-0.643799	0.671387	-0.451116	0.892462	-0.002218	0.336422	0.172354	0.925805	0.826628	0.416899	-0.377995
03736														-0.047536	9.014098	-3.717009	-0.011265	-0.023743	-0.001178	-0.183594	-0.643555	0.671387	-0.450858	0.892592	-0.002441	0.336407	0.172455	0.925791	0.826775	0.416579	-0.378027
03737														-0.082308	9.010422	-3.724185	-0.011355	-0.030920	-0.009260	-0.181396	-0.643555	0.673584	-0.450582	0.892731	-0.002761	0.336340	0.172621	0.925785	0.826953	0.416213	-0.378041
03738														0.008319	8.972422	-3.717194	-0.014723	-0.026837	-0.015942	-0.181396	-0.643555	0.671387	-0.450345	0.892849	-0.003136	0.336229	0.172842	0.925784	0.827127	0.415867	-0.378041
03739														0.015975	8.975199	-3.756676	-0.020711	-0.027514	-0.010340	-0.183350	-0.647949	0.673828	-0.450100	0.892971	-0.003452	0.336080	0.172980	0.925812	0.827321	0.415548	-0.377968
03740														-0.013951	8.961178	-3.704432	-0.019064	-0.023808	-0.000201	-0.179199	-0.645752	0.669434	-0.449838	0.893103	-0.003670	0.336002	0.173042	0.925829	0.827495	0.415240	-0.377925
03741														-0.034680	8.879383	-3.726375	-0.016666	-0.032161	0.004265	-0.181641	-0.641602	0.677979	-0.449505	0.893269	-0.003869	0.335952	0.173066	0.925843	0.827696	0.414872	-0.377890
03742														-0.024655	8.850216	-3.680473	-0.014132	-0.031359	0.008538	-0.183350	-0.650146	0.667236	-0.449146	0.893450	-0.004036	0.335958	0.173071	0.925839	0.827889	0.414481	-0.377896
03743														-0.037785	8.819003	-3.684026	-0.012019	-0.035839	0.013087	-0.181396	-0.647949	0.673828	-0.448753	0.893646	-0.004167	0.335986	0.173035	0.925836	0.828091	0.414071	-0.377903
03744														-0.076602	8.834584	-3.676583	-0.020723	-0.041717	0.025554	-0.181396	-0.643555	0.671387	-0.448266	0.893890	-0.004213	0.336001	0.172860	0.925863	0.828348	0.413618	-0.377835
03745														-0.051322	8.939160	-3.677721	-0.029287	-0.038438	0.037834	-0.172852	-0.647949	0.669434	-0.447769	0.894140	-0.004124	0.335997	0.172532	0.925926	0.828619	0.413215	-0.377683
03746														-0.054821	8.959729	-3.659907	-0.052427	-0.035764	0.043363	-0.183594	-0.643555	0.673584	-0.447263	0.894393	-0.003991	0.335830	0.172073	0.926072	0.828960	0.412858	-0.377326
03747														-0.016122	8.917213	-3.706977	-0.054490	-0.036399	0.048495	-0.185547	-0.645752	0.669189	-0.446747	0.894652	-0.003796	0.335664	0.171545	0.926230	0.829305	0.412516	-0.376940
03748														-0.001913	8.991199	-3.710069	-0.055539	-0.030780	0.047568	-0.181396	-0.645752	0.669434	-0.446272	0.894890	-0.003587	0.335500	0.171024	0.926386	0.829627	0.412217	-0.376559
03749														0.006844	9.084255	-3.698803	-0.056806	-0.024436	0.048111	-0.181396	-0.643555	0.669434	-0.445856	0.895099	-0.003350	0.335313	0.170490	0.926552	0.829926	0.411985	-0.376152
03750														0.012167	9.045992	-3.681090	-0.053327	-0.022950	0.050566	-0.179199	-0.643555	0.671631	-0.445436	0.895308	-0.003090	0.335174	0.169956	0.926700	0.830208	0.411750	-0.375789
03751														-0.018845	9.084245	-3.697175	-0.050415	-0.013725	0.053195	-0.183350	-0.645752	0.669434	-0.445092	0.895481	-0.002765	0.335063	0.169403	0.926842	0.830437	0.411603	-0.375442
03752														-0.055312	9.031422	-3.719989	-0.044007	-0.007766	0.047316	-0.177002	-0.647949	0.665039	-0.444805	0.895624	-0.002479	0.334990	0.168936	0.926953	0.830620	0.411483	-0.375169
03753														-0.079149	9.009849	-3.739056	-0.027540	-0.003832	0.042127	-0.181396	-0.643555	0.665039	-0.444580	0.895737	-0.002219	0.335019	0.168576	0.927008	0.830729	0.411386	-0.375034
03754														-0.109339	9.014994	-3.671969	-0.025059	0.000104	0.045022	-0.181396	-0.645752	0.667236	-0.444377	0.895838	-0.001930	0.335080	0.168212	0.927052	0.830813	0.411314	-0.374927
03755														-0.104668	9.007866	-3.742727	-0.020293	0.003963	0.041323	-0.181396	-0.645752	0.669434	-0.444219	0.895917	-0.001648	0.335165	0.167889	0.927080	0.830863	0.411274	-0.374859
03756														-0.111894	9.046737	-3.712342	-0.022484	0.009616	0.043694	-0.183594	-0.645752	0.673584	-0.444094	0.895979	-0.001331	0.335249	0.167545	0.927112	0.830896	0.411278	-0.374782
03757														-0.114868	8.997064	-3.729289	-0.025169	0.013139	0.044954	-0.181396	-0.645752	0.671631	-0.444000	0.896026	-0.000982	0.335310	0.167169	0.927158	0.830922	0.411329	-0.374670
03758														-0.100754	9.000324	-3.768217	-0.023185	0.008217	0.044061	-0.183594	-0.645752	0.671631	-0.443852	0.896100	-0.000665	0.335399	0.166817	0.927189	0.830965	0.411312	-0.374593
03759														-0.068826	9.024133	-3.743627	-0.026925	0.010628	0.041715	-0.181396	-0.643555	0.671387	-0.443748	0.896151	-0.000355	0.335431	0.166463	0.927241	0.831008	0.411343	-0.374464
03760														-0.034640	9.109556	-3.758490	-0.022257	0.002183	0.039565	-0.183350	-0.650146	0.671631	-0.443567	0.896241	-0.000103	0.335507	0.166155	0.927269	0.831074	0.411271	-0.374396
03761														-0.060437	9.128034	-3.791217	-0.026342	0.004889	0.033254	-0.181152	-0.647949	0.667236	-0.443443	0.896302	0.000107	0.335506	0.165880	0.927319	0.831140	0.411249	-0.374273
03762														-0.042728	9.120329	-3.771193	-0.029688	-0.002866	0.033567	-0.181152	-0.647949	0.669434	-0.443248	0.896399	0.000281	0.335482	0.165598	0.927377	0.831254	0.411153	-0.374127
03763														-0.064377	9.127927	-3.744824	-0.030469	-0.007846	0.029868	-0.183594	-0.643555	0.669189	-0.443030	0.896506	0.000412	0.335432	0.165336	0.927443	0.831390	0.411023	-0.373965
03764														-0.045485	9.072095	-3.784824	-0.031038	-0.013549	0.024696	-0.179199	-0.645752	0.667236	-0.442773	0.896634	0.000465	0.335363	0.165127	0.927505	0.831555	0.410830	-0.373811
03765														-0.059396	9.089908	-3.726641	-0.030895	-0.017844	0.019166	-0.181396	-0.647949	0.676025	-0.442508	0.896765	0.000460	0.335261	0.164959	0.927571	0.831737	0.410612	-0.373646
03766														-0.079407	9.009043	-3.747837	-0.033783	-0.018320	0.010932	-0.183350	-0.645752	0.669434	-0.442250	0.896892	0.000363	0.335111	0.164865	0.927643	0.831935	0.410371	-0.373469
03767														-0.097981	8.997730	-3.735510	-0.031870	-0.020098	0.008654	-0.181152	-0.652100	0.671631	-0.442001	0.897014	0.000252	0.334954	0.164787	0.927713	0.832130	0.410135	-0.373295
03768														-0.131509	8.995244	-3.740624	-0.033699	-0.019462	0.004028	-0.177246	-0.643555	0.671631	-0.441763	0.897132	0.000091	0.334770	0.164753	0.927785	0.832330	0.409892	-0.373115
03769														-0.096369	9.069853	-3.695592	-0.040926	-0.020502	0.007529	-0.183350	-0.647949	0.673828	-0.441515	0.897254	-0.000032	0.334534	0.164648	0.927889	0.832557	0.409666	-0.372856
03770														-0.075936	9.043590	-3.688651	-0.043134	-0.023572	0.015512	-0.183350	-0.650146	0.669434	-0.441194	0.897412	-0.000103	0.334331	0.164473	0.927993	0.832809	0.409391	-0.372597
03771														-0.094091	9.032581	-3.675514	-0.040218	-0.021092	0.015468	-0.183350	-0.647949	0.669434	-0.440914	0.897549	-0.000154	0.334134	0.164301	0.928095	0.833036	0.409158	-0.372345
03772														-0.084417	9.043998	-3.640533	-0.031001	-0.018256	0.013752	-0.183594	-0.643555	0.665039	-0.440657	0.897675	-0.000216	0.334017	0.164188	0.928157	0.833219	0.408927	-0.372189
03773														-0.118865	9.081786	-3.658346	-0.027455	-0.017943	0.009285	-0.181396	-0.647949	0.671631	-0.440424	0.897790	-0.000313	0.333900	0.164123	0.928210	0.833389	0.408702	-0.372056
03774														-0.091042	9.105539	-3.633170	-0.033302	-0.011012	0.002421	-0.181152	-0.650146	0.671631	-0.440263	0.897869	-0.000452	0.333717	0.164103	0.928280	0.833548	0.408537	-0.371882
03775														-0.048017	9.113089	-3.662766	-0.042280	-0.007843	0.005367	-0.179199	-0.645752	0.665039	-0.440127	0.897935	-0.000547	0.333459	0.164012	0.928389	0.833723	0.408427	-0.371610
03776														-0.062487	9.123652	-3.676015	-0.048607	0.003683	0.000085	-0.174805	-0.647949	0.665039	-0.440097	0.897950	-0.000659	0.333133	0.163954	0.928516	0.833869	0.408417	-0.371292
03777														-0.087316	9.021785	-3.669840	-0.036865	0.000563	-0.000061	-0.181152	-0.647949	0.665039	-0.440049	0.897974	-0.000774	0.332896	0.163934	0.928604	0.833989	0.408373	-0.371071
03778														-0.112153	9.062239	-3.728516	-0.025590	0.008747	0.004066	-0.181152	-0.652100	0.667236	-0.440051	0.897972	-0.000833	0.332773	0.163937	0.928648	0.834036	0.408375	-0.370962
03779														-0.119778	9.019968	-3.673388	-0.012278	0.010866	0.000362	-0.179199	-0.650146	0.671631	-0.440088	0.897954	-0.000906	0.332744	0.164015	0.928645	0.834029	0.408384	-0.370969
03780														-0.119267	9.020424	-3.672284	-0.012489	0.011586	0.001837	-0.179199	-0.647949	0.667236	-0.440117	0.897940	-0.000972	0.332726	0.164088	0.928638	0.834021	0.408385	-0.370986
03781														-0.102357	8.971554	-3.641434	-0.013181	0.016896	0.004892	-0.180908	-0.654297	0.667236	-0.440188	0.897905	-0.000980	0.332709	0.164121	0.928638	0.833990	0.408450	-0.370985
03782														-0.078363	9.006204	-3.676066	-0.017995	0.016202	0.007229	-0.181152	-0.652100	0.671631	-0.440243	0.897878	-0.000980	0.332665	0.164124	0.928654	0.833979	0.408507	-0.370947
03783														-0.052988	9.000814	-3.697443	-0.033815	0.022062	0.001082	-0.181152	-0.649902	0.667236	-0.440370	0.897816	-0.001004	0.332458	0.164107	0.928731	0.833994	0.408651	-0.370754
03784														-0.019977	9.046240	-3.698380	-0.038897	0.025241	0.003528	-0.176758	-0.654297	0.667480	-0.440508	0.897748	-0.001002	0.332229	0.164055	0.928822	0.834012	0.408820	-0.370526
03785														-0.000157	9.060181	-3.704351	-0.034520	0.020662	0.001442	-0.181152	-0.652100	0.671631	-0.440623	0.897692	-0.001028	0.332019	0.164032	0.928901	0.834036	0.408953	-0.370327
03786														0.000796	9.061391	-3.701390	-0.030838	0.021391	0.002415	-0.181152	-0.652100	0.665039	-0.440730	0.897639	-0.001057	0.331848	0.164027	0.928963	0.834046	0.409071	-0.370172
03787														-0.068699	9.033596	-3.688477	-0.024053	0.021848	0.010148	-0.180908	-0.656494	0.669678	-0.440826	0.897592	-0.000998	0.331763	0.163969	0.929003	0.834030	0.409198	-0.370070
03788														-0.045279	8.966055	-3.671397	-0.017348	0.018741	0.013808	-0.177002	-0.647949	0.667236	-0.440881	0.897565	-0.000927	0.331752	0.163915	0.929017	0.834005	0.409279	-0.370036
03789														-0.095401	8.950506	-3.668681	-0.018271	0.018055	0.015637	-0.179199	-0.647949	0.669434	-0.440927	0.897543	-0.000831	0.331739	0.163830	0.929036	0.833986	0.409362	-0.369987
03790														-0.076857	8.901877	-3.637178	-0.024141	0.020955	0.025353	-0.179199	-0.643555	0.667236	-0.440951	0.897531	-0.000647	0.331732	0.163648	0.929071	0.833976	0.409460	-0.369900
03791														-0.094129	8.821047	-3.659518	-0.030877	0.020015	0.038263	-0.181152	-0.649902	0.667236	-0.440938	0.897537	-0.000334	0.331714	0.163309	0.929137	0.833990	0.409581	-0.369735
03792														-0.098784	8.812393	-3.688437	-0.035284	0.015863	0.045931	-0.181152	-0.650146	0.669434	-0.440854	0.897579	0.000026	0.331706	0.162893	0.929213	0.834038	0.409656	-0.369544
03793														-0.042860	8.870342	-3.698613	-0.035114	0.022992	0.054098	-0.183350	-0.649902	0.665039	-0.440813	0.897599	0.000498	0.331722	0.162394	0.929295	0.834053	0.409811	-0.369339
03794														-0.012129	8.974967	-3.697440	-0.030951	0.019129	0.053488	-0.178955	-0.654297	0.663086	-0.440735	0.897637	0.000942	0.331780	0.161927	0.929355	0.834071	0.409912	-0.369185
03795														0.089484	9.108230	-3.706360	-0.036817	0.017355	0.052214	-0.185303	-0.652100	0.667236	-0.440654	0.897676	0.001375	0.331774	0.161439	0.929443	0.834116	0.410019	-0.368964
03796														0.136737	9.156170	-3.748182	-0.032919	0.017362	0.051717	-0.185547	-0.647949	0.669434	-0.440573	0.897715	0.001793	0.331800	0.160981	0.929513	0.834149	0.410113	-0.368785
03797														0.178654	9.189417	-3.690934	-0.026752	0.017305	0.044608	-0.185303	-0.652100	0.660645	-0.440517	0.897742	0.002155	0.331844	0.160602	0.929563	0.834161	0.410203	-0.368658
03798														0.142703	9.246126	-3.694598	-0.020674	0.013686	0.033412	-0.180908	-0.654297	0.663086	-0.440465	0.897766	0.002397	0.331898	0.160355	0.929586	0.834167	0.410246	-0.368598
03799														0.086900	9.290184	-3.689461	-0.018079	0.018501	0.021125	-0.185547	-0.647949	0.665039	-0.440496	0.897751	0.002545	0.331911	0.160222	0.929604	0.834145	0.410332	-0.368551
03800														0.099533	9.260200	-3.643636	-0.021433	0.022663	0.014477	-0.183350	-0.647949	0.669434	-0.440583	0.897708	0.002638	0.331870	0.160146	0.929632	0.834115	0.410456	-0.368480
03801														0.035908	9.213704	-3.645643	-0.028367	0.019801	0.009574	-0.185547	-0.647949	0.662842	-0.440664	0.897668	0.002684	0.331747	0.160074	0.929688	0.834122	0.410570	-0.368337
03802														0.036318	9.255139	-3.655364	-0.022997	0.019453	0.009733	-0.187500	-0.647949	0.662842	-0.440732	0.897635	0.002725	0.331682	0.160031	0.929719	0.834112	0.410661	-0.368260
03803														0.002198	9.183190	-3.696219	-0.012144	0.024348	0.005854	-0.178955	-0.652100	0.665039	-0.440863	0.897570	0.002753	0.331677	0.160060	0.929716	0.834045	0.410790	-0.368268
03804														-0.014223	9.130336	-3.674515	0.002136	0.023959	0.001699	-0.187744	-0.645752	0.669189	-0.441001	0.897503	0.002731	0.331779	0.160195	0.929656	0.833931	0.410885	-0.368418
03805														-0.006732	9.070684	-3.677579	0.012786	0.019700	-0.002072	-0.187500	-0.650146	0.665039	-0.441119	0.897445	0.002668	0.331947	0.160397	0.929561	0.833802	0.410933	-0.368658
03806														-0.010428	9.048550	-3.652271	0.014774	0.021478	-0.000277	-0.183350	-0.650146	0.667236	-0.441238	0.897386	0.002630	0.332157	0.160595	0.929452	0.833655	0.410983	-0.368933
03807														0.014745	9.041919	-3.676594	0.000915	0.020434	0.000917	-0.183594	-0.643555	0.666992	-0.441353	0.897330	0.002598	0.332239	0.160722	0.929401	0.833562	0.411057	-0.369063
03808														0.001996	9.010691	-3.681468	-0.010669	0.019327	-0.004502	-0.185547	-0.647949	0.667236	-0.441464	0.897275	0.002504	0.332216	0.160859	0.929385	0.833512	0.411122	-0.369102
03809														0.015275	9.042798	-3.674428	-0.027362	0.014697	-0.010203	-0.185547	-0.650146	0.667236	-0.441568	0.897225	0.002347	0.332013	0.160969	0.929439	0.833538	0.411189	-0.368969
03810														0.015105	9.043855	-3.671828	-0.030098	0.009478	-0.003364	-0.185303	-0.654297	0.671631	-0.441597	0.897211	0.002230	0.331831	0.161013	0.929496	0.833595	0.411203	-0.368825
03811														-0.026941	9.031633	-3.709602	-0.022908	0.008465	0.001429	-0.189697	-0.645752	0.664795	-0.441610	0.897205	0.002159	0.331717	0.161037	0.929532	0.833633	0.411207	-0.368734
03812														0.002248	9.014042	-3.673255	-0.010824	0.007018	-0.003034	-0.185547	-0.647949	0.662842	-0.441618	0.897201	0.002040	0.331700	0.161155	0.929518	0.833636	0.411169	-0.368771
03813														-0.017948	9.042288	-3.675508	-0.004319	0.006638	-0.006179	-0.183350	-0.647949	0.665039	-0.441641	0.897190	0.001891	0.331708	0.161324	0.929486	0.833621	0.411126	-0.368852
03814														0.007535	8.995658	-3.686569	-0.006385	0.005978	-0.001047	-0.181152	-0.649902	0.665039	-0.441639	0.897191	0.001782	0.331729	0.161446	0.929457	0.833613	0.411076	-0.368925
03815														-0.034073	8.949228	-3.641015	-0.011071	0.005694	0.006728	-0.185303	-0.652100	0.665039	-0.441611	0.897205	0.001750	0.331738	0.161471	0.929450	0.833625	0.411036	-0.368944
03816														-0.015478	9.002772	-3.661005	-0.015168	0.006416	0.008709	-0.183350	-0.647949	0.667236	-0.441580	0.897220	0.001729	0.331725	0.161472	0.929454	0.833646	0.411002	-0.368933
03817														-0.027573	8.971981	-3.664883	-0.018086	0.013826	0.010122	-0.185547	-0.647949	0.665039	-0.441609	0.897206	0.001758	0.331690	0.161438	0.929473	0.833645	0.411046	-0.368887
03818														-0.020128	8.953718	-3.677940	-0.013850	0.008303	0.023227	-0.187500	-0.652100	0.665039	-0.441541	0.897239	0.001884	0.331761	0.161311	0.929470	0.833652	0.411024	-0.368894
03819														0.038022	8.998656	-3.631358	-0.008187	0.010791	0.026003	-0.181152	-0.652100	0.665039	-0.441492	0.897263	0.002049	0.331878	0.161175	0.929451	0.833632	0.411025	-0.368939
03820														0.036443	8.977165	-3.604365	-0.002312	0.012562	0.027300	-0.189941	-0.645752	0.666992	-0.441452	0.897282	0.002226	0.332054	0.161061	0.929408	0.833583	0.411028	-0.369047
03821														0.048196	8.986951	-3.572257	-0.002100	0.011846	0.025822	-0.187500	-0.650146	0.665039	-0.441412	0.897301	0.002393	0.332221	0.160952	0.929367	0.833537	0.411029	-0.369149
03822														0.087574	9.052701	-3.602006	-0.008182	0.010797	0.026008	-0.185547	-0.647949	0.665039	-0.441361	0.897326	0.002562	0.332354	0.160819	0.929343	0.833512	0.411027	-0.369208
03823														0.141156	9.109721	-3.613236	-0.025884	0.011816	0.019412	-0.179199	-0.647949	0.665039	-0.441342	0.897335	0.002670	0.332294	0.160669	0.929390	0.833545	0.411066	-0.369089
03824														0.127750	9.160384	-3.640118	-0.029557	0.011109	0.018435	-0.187500	-0.650146	0.662842	-0.441314	0.897348	0.002756	0.332208	0.160525	0.929446	0.833595	0.411093	-0.368948
03825														0.106504	9.127229	-3.601813	-0.029637	0.017430	0.015731	-0.187256	-0.654297	0.660645	-0.441354	0.897328	0.002850	0.332101	0.160393	0.929507	0.833616	0.411188	-0.368794
03826														0.074192	9.165330	-3.619762	-0.022073	0.018130	0.016213	-0.185303	-0.654297	0.667236	-0.441407	0.897302	0.002949	0.332059	0.160294	0.929539	0.833604	0.411285	-0.368712
03827														0.014111	9.147302	-3.576259	-0.016788	0.024092	0.013672	-0.189453	-0.654297	0.665039	-0.441510	0.897251	0.003049	0.332050	0.160233	0.929553	0.833554	0.411419	-0.368677
03828														0.022902	9.088410	-3.577527	-0.010873	0.022697	0.016325	-0.185547	-0.650146	0.667236	-0.441592	0.897210	0.003164	0.332107	0.160180	0.929541	0.833487	0.411529	-0.368704
03829														-0.021413	9.054083	-3.590412	-0.009643	0.026226	0.017118	-0.185303	-0.652100	0.665039	-0.441701	0.897156	0.003304	0.332173	0.160117	0.929529	0.833403	0.411671	-0.368735
03830														0.033125	9.070294	-3.590163	-0.010776	0.031464	0.010792	-0.185303	-0.649902	0.662842	-0.441870	0.897073	0.003397	0.332210	0.160116	0.929516	0.833299	0.411854	-0.368767
03831														0.059596	9.064349	-3.612735	-0.010563	0.030749	0.009313	-0.187744	-0.645752	0.662842	-0.442042	0.896987	0.003481	0.332234	0.160120	0.929507	0.833198	0.412038	-0.368789
03832														0.119383	9.061650	-3.627069	-0.006886	0.031457	0.010299	-0.189697	-0.650146	0.665039	-0.442218	0.896901	0.003573	0.332300	0.160138	0.929480	0.833079	0.412220	-0.368856
03833														0.069215	9.045965	-3.626034	-0.001521	0.031097	0.010466	-0.185303	-0.650146	0.665039	-0.442389	0.896816	0.003669	0.332404	0.160169	0.929437	0.832946	0.412393	-0.368962
03834														0.044750	8.983238	-3.637032	0.002565	0.025161	0.018124	-0.187500	-0.650146	0.665039	-0.442484	0.896768	0.003811	0.332585	0.160155	0.929375	0.832824	0.412501	-0.369117
03835														0.047086	8.983281	-3.636897	-0.005328	0.024791	0.013668	-0.187500	-0.652100	0.669434	-0.442592	0.896714	0.003913	0.332671	0.160141	0.929346	0.832732	0.412623	-0.369188
03836														-0.008473	8.986774	-3.620659	-0.020147	0.026248	0.015313	-0.187744	-0.645752	0.669189	-0.442702	0.896660	0.004032	0.332652	0.160059	0.929367	0.832681	0.412774	-0.369134
03837														-0.012277	9.047218	-3.615476	-0.038005	0.029523	0.022565	-0.185547	-0.645752	0.667236	-0.442820	0.896601	0.004234	0.332506	0.159831	0.929459	0.832677	0.412991	-0.368901
03838														-0.056596	9.054734	-3.637469	-0.048564	0.027490	0.029037	-0.185303	-0.652100	0.665039	-0.442886	0.896567	0.004485	0.332320	0.159509	0.929581	0.832716	0.413189	-0.368591
03839														-0.019392	9.093581	-3.709666	-0.043705	0.025009	0.028073	-0.183350	-0.650146	0.667236	-0.442948	0.896535	0.004722	0.332151	0.159208	0.929693	0.832750	0.413374	-0.368306
03840														0.001799	9.148048	-3.727114	-0.031414	0.022818	0.022144	-0.189697	-0.650146	0.667236	-0.443004	0.896507	0.004883	0.332064	0.159023	0.929755	0.832755	0.413507	-0.368146
03841														0.047538	9.121173	-3.672578	-0.016417	0.023799	0.017677	-0.185303	-0.654297	0.665039	-0.443090	0.896463	0.005019	0.332077	0.158928	0.929767	0.832704	0.413638	-0.368114
03842														0.054477	9.143332	-3.697956	-0.005965	0.017062	0.016739	-0.189697	-0.650146	0.660645	-0.443119	0.896448	0.005114	0.332180	0.158894	0.929736	0.832648	0.413682	-0.368191
03843														0.025140	9.059162	-3.682154	-0.005995	0.020227	0.015394	-0.187500	-0.654297	0.667236	-0.443183	0.896416	0.005216	0.332268	0.158862	0.929710	0.832578	0.413765	-0.368256
03844														0.019215	9.009341	-3.701504	-0.010931	0.019164	0.012259	-0.191895	-0.645752	0.666992	-0.443250	0.896383	0.005279	0.332307	0.158847	0.929699	0.832527	0.413843	-0.368283
03845														0.016830	9.022113	-3.758535	-0.019240	0.020242	0.010761	-0.189697	-0.647949	0.665039	-0.443330	0.896343	0.005337	0.332265	0.158802	0.929722	0.832502	0.413946	-0.368225
03846														-0.035162	9.013770	-3.683315	-0.022159	0.017786	0.010779	-0.191895	-0.650146	0.667236	-0.443382	0.896316	0.005388	0.332216	0.158749	0.929748	0.832493	0.414024	-0.368157
03847														-0.033373	9.014597	-3.681306	-0.022548	0.016056	0.015093	-0.189697	-0.650146	0.662842	-0.443413	0.896301	0.005472	0.332166	0.158651	0.929782	0.832497	0.414095	-0.368069
03848														-0.045754	9.024634	-3.696944	-0.017969	0.020609	0.012917	-0.187256	-0.656494	0.665039	-0.443487	0.896264	0.005551	0.332156	0.158597	0.929795	0.832462	0.414196	-0.368035
03849														-0.000128	9.031453	-3.727767	-0.016885	0.018525	0.017895	-0.187500	-0.649902	0.658447	-0.443529	0.896242	0.005669	0.332165	0.158499	0.929809	0.832436	0.414280	-0.367999
03850														0.039896	9.056972	-3.744272	-0.012396	0.019524	0.011608	-0.179199	-0.643555	0.669434	-0.443604	0.896205	0.005723	0.332182	0.158486	0.929805	0.832389	0.414366	-0.368008
03851														0.072774	9.107806	-3.673284	-0.016489	0.020260	0.013587	-0.189697	-0.645752	0.662842	-0.443675	0.896169	0.005808	0.332175	0.158427	0.929817	0.832353	0.414466	-0.367975
03852														0.066007	9.098890	-3.703819	-0.015736	0.018502	0.014593	-0.191650	-0.656494	0.665039	-0.443712	0.896150	0.005884	0.332196	0.158375	0.929819	0.832325	0.414527	-0.367971
03853														0.076825	9.108900	-3.670489	-0.012786	0.017794	0.015925	-0.189941	-0.645752	0.669189	-0.443754	0.896128	0.005982	0.332231	0.158311	0.929817	0.832289	0.414598	-0.367973
03854														0.078893	9.109300	-3.669453	-0.009652	0.019535	0.014430	-0.195801	-0.652100	0.660645	-0.443810	0.896100	0.006069	0.332299	0.158279	0.929799	0.832232	0.414671	-0.368019
03855														0.080403	9.109566	-3.668759	-0.005252	0.016979	0.004029	-0.187500	-0.649902	0.660645	-0.443885	0.896063	0.006053	0.332343	0.158353	0.929770	0.832174	0.414723	-0.368091
03856														0.062581	9.097340	-3.659222	-0.008807	0.016672	0.008494	-0.191650	-0.652100	0.660645	-0.443950	0.896031	0.006077	0.332381	0.158377	0.929753	0.832124	0.414784	-0.368135
03857														0.064996	9.057080	-3.646552	-0.010188	0.020582	0.011945	-0.187500	-0.652100	0.662842	-0.444029	0.895991	0.006147	0.332419	0.158359	0.929742	0.832067	0.414876	-0.368161
03858														0.015214	9.001238	-3.633496	-0.011449	0.020222	0.009796	-0.185303	-0.654297	0.660645	-0.444117	0.895947	0.006191	0.332439	0.158364	0.929734	0.832012	0.414969	-0.368180
03859														0.050084	9.004742	-3.623996	-0.008315	0.021962	0.008303	-0.187500	-0.650146	0.662842	-0.444219	0.895896	0.006233	0.332477	0.158386	0.929716	0.831942	0.415070	-0.368223
03860														0.037360	9.014372	-3.640713	-0.008337	0.025130	0.006963	-0.191650	-0.650146	0.662842	-0.444354	0.895829	0.006261	0.332507	0.158434	0.929697	0.831858	0.415197	-0.368271
03861														0.028875	9.011714	-3.598916	-0.011379	0.026946	0.012575	-0.189697	-0.647949	0.662842	-0.444484	0.895764	0.006361	0.332539	0.158406	0.929691	0.831776	0.415348	-0.368285
03862														0.063883	9.055794	-3.601183	-0.007802	0.028745	0.020516	-0.191895	-0.647949	0.666992	-0.444603	0.895704	0.006539	0.332644	0.158328	0.929667	0.831671	0.415508	-0.368343
03863														0.066660	9.056002	-3.600609	-0.004453	0.029770	0.017540	-0.187500	-0.652100	0.665039	-0.444739	0.895635	0.006696	0.332755	0.158284	0.929635	0.831554	0.415673	-0.368422
03864														0.055214	9.065445	-3.617804	-0.001694	0.026609	0.021701	-0.193604	-0.658691	0.662842	-0.444829	0.895589	0.006873	0.332918	0.158223	0.929586	0.831440	0.415795	-0.368540
03865														0.077116	9.077940	-3.626509	-0.000776	0.030467	0.018542	-0.193848	-0.654297	0.662842	-0.444968	0.895519	0.007042	0.333065	0.158185	0.929540	0.831307	0.415961	-0.368653
03866														0.075025	9.056294	-3.599709	-0.009094	0.034730	0.015692	-0.187500	-0.649902	0.660645	-0.445161	0.895422	0.007197	0.333128	0.158144	0.929525	0.831179	0.416186	-0.368689
03867														0.063592	9.066123	-3.615967	-0.017814	0.037259	0.017153	-0.191895	-0.650146	0.669434	-0.445361	0.895321	0.007378	0.333126	0.158048	0.929542	0.831072	0.416439	-0.368643
03868														0.055480	9.104432	-3.584992	-0.022630	0.036599	0.019466	-0.193848	-0.654297	0.667236	-0.445543	0.895229	0.007570	0.333103	0.157921	0.929572	0.830984	0.416686	-0.368564
03869														0.097155	9.089501	-3.588822	-0.021264	0.035859	0.014678	-0.191650	-0.656494	0.665039	-0.445740	0.895129	0.007722	0.333062	0.157832	0.929601	0.830895	0.416932	-0.368485
03870														0.071467	9.108811	-3.622355	-0.010799	0.042149	0.013855	-0.193848	-0.647949	0.660645	-0.445990	0.895003	0.007885	0.333108	0.157802	0.929590	0.830742	0.417214	-0.368511
03871														0.050336	9.074858	-3.586398	-0.007834	0.038269	0.016533	-0.195801	-0.654297	0.662842	-0.446200	0.894897	0.008063	0.333187	0.157753	0.929570	0.830597	0.417461	-0.368558
03872														0.038859	9.084326	-3.603662	0.002541	0.041004	0.011592	-0.187500	-0.647949	0.662842	-0.446456	0.894768	0.008206	0.333335	0.157796	0.929510	0.830401	0.417721	-0.368706
03873														0.052800	9.046714	-3.632818	-0.001246	0.044589	0.016204	-0.191650	-0.652100	0.662842	-0.446720	0.894635	0.008405	0.333467	0.157778	0.929466	0.830206	0.418013	-0.368813
03874														0.063362	9.096841	-3.612175	-0.004593	0.042083	0.006772	-0.194092	-0.650146	0.671387	-0.446992	0.894498	0.008496	0.333532	0.157842	0.929431	0.830033	0.418282	-0.368898
03875														0.080478	9.047141	-3.582080	-0.012794	0.046743	0.009377	-0.198242	-0.650146	0.662598	-0.447296	0.894344	0.008640	0.333537	0.157837	0.929430	0.829867	0.418612	-0.368897
03876														0.049760	9.044636	-3.589456	-0.018129	0.043963	0.010530	-0.196045	-0.652100	0.662842	-0.447568	0.894207	0.008785	0.333519	0.157802	0.929443	0.829727	0.418919	-0.368862
03877														0.046070	9.104720	-3.584891	-0.019594	0.044326	0.009866	-0.194092	-0.647949	0.664795	-0.447851	0.894064	0.008924	0.333470	0.157763	0.929467	0.829595	0.419238	-0.368798
03878														0.092839	9.070855	-3.603445	-0.017692	0.042538	0.007567	-0.185059	-0.658691	0.667480	-0.448126	0.893925	0.009033	0.333436	0.157759	0.929480	0.829460	0.419536	-0.368763
03879														0.061644	9.068468	-3.610612	-0.018720	0.038296	0.005263	-0.193848	-0.652100	0.660645	-0.448373	0.893800	0.009107	0.333374	0.157766	0.929501	0.829351	0.419800	-0.368707
03880														0.058709	9.047230	-3.582779	-0.015474	0.040421	0.009248	-0.198242	-0.650146	0.666992	-0.448624	0.893673	0.009209	0.333354	0.157765	0.929508	0.829224	0.420069	-0.368686
03881														0.038511	9.047886	-3.630898	-0.018836	0.042576	0.010887	-0.196045	-0.650146	0.664795	-0.448888	0.893539	0.009351	0.333316	0.157721	0.929529	0.829096	0.420371	-0.368630
03882														0.055132	9.039244	-3.611362	-0.024183	0.042968	0.010699	-0.195801	-0.656494	0.660645	-0.449152	0.893405	0.009494	0.333247	0.157659	0.929564	0.828981	0.420679	-0.368537
03883														0.081815	9.074446	-3.643984	-0.025655	0.046504	0.008702	-0.196045	-0.650146	0.660645	-0.449456	0.893251	0.009630	0.333143	0.157606	0.929611	0.828858	0.421027	-0.368417
03884														0.084401	9.075350	-3.641672	-0.024402	0.050039	0.009536	-0.193848	-0.652100	0.662842	-0.449794	0.893079	0.009782	0.333053	0.157557	0.929651	0.828711	0.421409	-0.368310
03885														0.101223	9.066618	-3.622271	-0.014647	0.051748	0.010420	-0.197998	-0.656494	0.662842	-0.450135	0.892905	0.009953	0.333047	0.157534	0.929657	0.828527	0.421787	-0.368291
03886														0.122619	9.120085	-3.641518	-0.006883	0.054866	0.008148	-0.195801	-0.654297	0.665039	-0.450513	0.892713	0.010109	0.333099	0.157573	0.929632	0.828302	0.422179	-0.368350
03887														0.174581	9.107719	-3.687086	-0.008953	0.052727	0.000860	-0.197998	-0.652100	0.662842	-0.450894	0.892519	0.010195	0.333098	0.157659	0.929618	0.828094	0.422555	-0.368384
03888														0.176871	9.107832	-3.686696	0.002566	0.060088	0.003743	-0.198242	-0.650146	0.666992	-0.451326	0.892299	0.010331	0.333211	0.157776	0.929557	0.827813	0.422976	-0.368532
03889														0.185337	9.048223	-3.689976	0.007841	0.052973	0.001145	-0.198242	-0.650146	0.664795	-0.451709	0.892105	0.010421	0.333350	0.157931	0.929481	0.827549	0.423328	-0.368722
03890														0.195794	9.057303	-3.658302	0.005432	0.052648	0.002294	-0.194092	-0.647949	0.666992	-0.452078	0.891916	0.010519	0.333489	0.158071	0.929408	0.827291	0.423673	-0.368905
03891														0.183772	9.066619	-3.676131	0.001253	0.053017	-0.001207	-0.200195	-0.652344	0.666992	-0.452468	0.891718	0.010587	0.333563	0.158220	0.929356	0.827048	0.424036	-0.369033
03892														0.191253	9.047848	-3.690595	-0.000940	0.051976	-0.001547	-0.196045	-0.652344	0.669189	-0.452842	0.891527	0.010644	0.333632	0.158369	0.929306	0.826816	0.424380	-0.369158
03893														0.185499	8.997863	-3.711046	0.001348	0.053410	0.004270	-0.200195	-0.652344	0.669189	-0.453217	0.891335	0.010765	0.333731	0.158469	0.929253	0.826570	0.424746	-0.369287
03894														0.163079	9.004024	-3.688251	0.007220	0.048797	0.008299	-0.198242	-0.650146	0.662598	-0.453528	0.891175	0.010902	0.333913	0.158565	0.929171	0.826326	0.425046	-0.369488
03895														0.179154	9.035018	-3.682652	0.003341	0.042480	0.011423	-0.202148	-0.656494	0.660645	-0.453789	0.891041	0.011049	0.334061	0.158610	0.929110	0.826123	0.425311	-0.369637
03896														0.167189	9.084940	-3.712258	0.004514	0.042457	0.008126	-0.197998	-0.654297	0.662842	-0.454067	0.890898	0.011163	0.334205	0.158695	0.929044	0.825912	0.425579	-0.369801
03897														0.183593	9.075350	-3.694839	0.002614	0.041079	0.011757	-0.202393	-0.647949	0.664795	-0.454315	0.890769	0.011308	0.334349	0.158733	0.928986	0.825717	0.425833	-0.369943
03898														0.177653	9.065947	-3.727107	0.000338	0.036475	0.007272	-0.197998	-0.656494	0.662842	-0.454539	0.890654	0.011393	0.334462	0.158808	0.928932	0.825548	0.426047	-0.370074
03899														0.154401	9.112814	-3.715941	0.005469	0.033626	0.010303	-0.202393	-0.650146	0.660400	-0.454731	0.890555	0.011497	0.334622	0.158872	0.928864	0.825378	0.426230	-0.370243
03900														0.178679	9.112452	-3.666569	0.007152	0.029373	0.010819	-0.202393	-0.647949	0.662598	-0.454891	0.890472	0.011586	0.334799	0.158945	0.928787	0.825217	0.426376	-0.370432
03901														0.139318	9.099842	-3.708618	0.008107	0.030065	0.009008	-0.198242	-0.650146	0.664795	-0.455057	0.890386	0.011665	0.334976	0.159032	0.928709	0.825054	0.426523	-0.370626
03902														0.140780	9.099497	-3.709411	0.010150	0.023991	0.001083	-0.202393	-0.650146	0.671387	-0.455198	0.890314	0.011646	0.335142	0.159204	0.928619	0.824909	0.426609	-0.370851
03903														0.128228	9.067861	-3.716467	0.013300	0.022553	0.000949	-0.204590	-0.652344	0.669189	-0.455329	0.890247	0.011622	0.335324	0.159385	0.928523	0.824762	0.426681	-0.371094
03904														0.117443	9.104849	-3.688838	0.017832	0.014014	-0.001321	-0.198242	-0.647949	0.669189	-0.455388	0.890218	0.011548	0.335552	0.159607	0.928402	0.824637	0.426658	-0.371398
03905														0.104683	9.072976	-3.696488	0.018417	0.013350	0.006635	-0.197998	-0.650146	0.660400	-0.455424	0.890200	0.011543	0.335803	0.159759	0.928285	0.824515	0.426640	-0.371690
03906														0.110936	9.053675	-3.712234	0.009246	0.005930	-0.002891	-0.202393	-0.650146	0.662598	-0.455428	0.890200	0.011415	0.335942	0.159966	0.928199	0.824457	0.426563	-0.371908
03907														0.078110	9.009773	-3.710456	0.006304	0.000298	-0.001593	-0.198242	-0.645752	0.664795	-0.455384	0.890224	0.011285	0.336055	0.160140	0.928129	0.824435	0.426447	-0.372089
03908														0.093483	9.109677	-3.669634	-0.001982	-0.001766	-0.001841	-0.202393	-0.652344	0.664795	-0.455325	0.890256	0.011144	0.336106	0.160286	0.928085	0.824447	0.426325	-0.372203
03909														0.093121	9.109901	-3.669089	-0.010048	-0.004548	-0.003576	-0.200195	-0.654297	0.662842	-0.455248	0.890297	0.010977	0.336076	0.160407	0.928075	0.824502	0.426193	-0.372232
03910														0.078791	9.119722	-3.685846	-0.011002	-0.005238	-0.001763	-0.200195	-0.650146	0.660400	-0.455165	0.890341	0.010823	0.336046	0.160514	0.928067	0.824559	0.426060	-0.372256
03911														0.064030	9.129456	-3.702827	-0.005063	-0.004993	-0.012799	-0.202393	-0.652344	0.673584	-0.455115	0.890370	0.010569	0.336014	0.160738	0.928040	0.824600	0.425916	-0.372332
03912														0.037709	9.135831	-3.679828	0.004912	-0.000830	-0.014689	-0.202393	-0.650146	0.669189	-0.455105	0.890378	0.010313	0.336066	0.161027	0.927971	0.824585	0.425790	-0.372509
03913														0.069059	9.138549	-3.671320	0.010628	-0.003043	-0.022910	-0.200439	-0.650146	0.666992	-0.455105	0.890382	0.009973	0.336117	0.161408	0.927886	0.824563	0.425637	-0.372731
03914														0.034286	9.094472	-3.669966	0.014076	-0.001636	-0.020392	-0.200439	-0.647949	0.669189	-0.455105	0.890385	0.009663	0.336221	0.161785	0.927783	0.824521	0.425487	-0.372996
03915														0.038459	9.034457	-3.674256	0.018920	0.002203	-0.023987	-0.197998	-0.654297	0.669434	-0.455152	0.890365	0.009332	0.336337	0.162212	0.927666	0.824448	0.425368	-0.373293
03916														0.044452	9.043159	-3.643733	0.018411	0.003255	-0.026474	-0.198242	-0.647949	0.671387	-0.455212	0.890338	0.008980	0.336447	0.162664	0.927547	0.824370	0.425251	-0.373598
03917														0.061332	9.054905	-3.653970	0.020103	0.005356	-0.028608	-0.196289	-0.645752	0.669189	-0.455300	0.890296	0.008618	0.336551	0.163136	0.927427	0.824278	0.425158	-0.373906
03918														0.026400	9.010566	-3.653156	0.017465	0.005745	-0.025984	-0.196045	-0.647949	0.660400	-0.455374	0.890262	0.008278	0.336661	0.163581	0.927308	0.824193	0.425059	-0.374207
03919														0.032349	9.019236	-3.622775	0.023042	0.007819	-0.028575	-0.200439	-0.647949	0.673584	-0.455483	0.890209	0.007926	0.336789	0.164066	0.927176	0.824080	0.424982	-0.374542
03920														0.021719	9.049742	-3.668487	0.016077	0.009671	-0.022522	-0.202637	-0.645996	0.671387	-0.455586	0.890159	0.007636	0.336896	0.164472	0.927065	0.823979	0.424931	-0.374823
03921														0.014324	9.068065	-3.655180	0.009775	0.012543	-0.022257	-0.194092	-0.645752	0.669189	-0.455713	0.890096	0.007360	0.336944	0.164844	0.926982	0.823890	0.424918	-0.375034
03922														0.059310	9.102138	-3.640617	0.004422	0.009752	-0.021150	-0.196289	-0.643799	0.666992	-0.455806	0.890051	0.007085	0.336969	0.165187	0.926912	0.823828	0.424879	-0.375213
03923														0.069278	9.064447	-3.669857	0.002226	0.011878	-0.022829	-0.198242	-0.647949	0.666992	-0.455929	0.889990	0.006802	0.336952	0.165532	0.926856	0.823767	0.424873	-0.375355
03924														0.053755	9.033107	-3.676085	0.003561	0.013924	-0.034399	-0.194092	-0.645752	0.671387	-0.456108	0.889901	0.006418	0.336903	0.165991	0.926792	0.823688	0.424879	-0.375520
03925														0.064457	9.064262	-3.670401	0.003054	0.014976	-0.036885	-0.200439	-0.647949	0.666992	-0.456304	0.889804	0.006016	0.336828	0.166464	0.926734	0.823610	0.424899	-0.375669
03926														0.094865	9.067204	-3.661653	0.008187	0.015316	-0.035172	-0.197998	-0.652344	0.666992	-0.456494	0.889709	0.005631	0.336815	0.166949	0.926652	0.823510	0.424907	-0.375878
03927														0.079698	8.994941	-3.656867	0.014341	0.016736	-0.029810	-0.194092	-0.645752	0.669189	-0.456680	0.889615	0.005301	0.336865	0.167407	0.926551	0.823386	0.424923	-0.376132
03928														0.072588	8.972557	-3.632054	0.017562	0.018871	-0.025803	-0.198242	-0.650146	0.666992	-0.456872	0.889519	0.005014	0.336966	0.167850	0.926434	0.823239	0.424951	-0.376423
03929														0.077422	8.912389	-3.636660	0.025849	0.017782	-0.024218	-0.191895	-0.650146	0.669434	-0.457048	0.889429	0.004740	0.337136	0.168307	0.926289	0.823071	0.424957	-0.376784
03930														0.031279	8.946071	-3.618855	0.015433	0.021386	-0.022020	-0.189941	-0.645752	0.669189	-0.457249	0.889328	0.004495	0.337234	0.168708	0.926181	0.822920	0.425011	-0.377053
03931														0.074887	8.951894	-3.651189	0.005363	0.025045	-0.010391	-0.194092	-0.647949	0.664795	-0.457438	0.889231	0.004376	0.337299	0.168955	0.926112	0.822788	0.425115	-0.377223
03932														0.061347	8.961237	-3.668884	-0.006461	0.026212	-0.002090	-0.194092	-0.643799	0.669189	-0.457610	0.889143	0.004330	0.337306	0.169089	0.926085	0.822689	0.425246	-0.377290
03933														0.080764	9.014718	-3.688202	-0.014233	0.029431	-0.002513	-0.198486	-0.645752	0.673584	-0.457809	0.889040	0.004301	0.337246	0.169183	0.926090	0.822603	0.425423	-0.377279
03934														0.127960	9.049801	-3.671373	-0.019357	0.032270	-0.005550	-0.198242	-0.647949	0.671387	-0.458035	0.888924	0.004256	0.337145	0.169287	0.926107	0.822519	0.425625	-0.377236
03935														0.161088	9.094190	-3.672325	-0.013041	0.035767	-0.008453	-0.200439	-0.650146	0.671387	-0.458306	0.888784	0.004196	0.337067	0.169439	0.926108	0.822399	0.425855	-0.377235
03936														0.134344	9.072619	-3.695115	-0.007465	0.031497	-0.008380	-0.191895	-0.647949	0.669189	-0.458541	0.888664	0.004125	0.337048	0.169614	0.926083	0.822277	0.426037	-0.377298
03937														0.115972	9.060207	-3.686418	0.002855	0.038927	-0.002137	-0.191650	-0.652100	0.669434	-0.458817	0.888521	0.004135	0.337130	0.169778	0.926023	0.822089	0.426269	-0.377444
03938														0.084590	9.016254	-3.684360	0.006248	0.046319	-0.007719	-0.196045	-0.647949	0.666992	-0.459169	0.888339	0.004110	0.337215	0.170017	0.925948	0.821857	0.426553	-0.377628
03939														0.084091	8.947278	-3.719536	0.000905	0.049879	-0.009271	-0.196289	-0.645752	0.666992	-0.459559	0.888138	0.004096	0.337248	0.170236	0.925896	0.821626	0.426886	-0.377756
03940														0.060212	8.953479	-3.696835	0.003392	0.053787	-0.006257	-0.194092	-0.650146	0.673584	-0.459974	0.887923	0.004123	0.337319	0.170443	0.925832	0.821365	0.427249	-0.377913
03941														0.068012	8.934625	-3.711409	0.000584	0.061639	0.000659	-0.196289	-0.643799	0.673584	-0.460426	0.887688	0.004246	0.337395	0.170572	0.925781	0.821080	0.427686	-0.378037
03942														0.043488	8.912516	-3.735547	0.006728	0.063069	0.006042	-0.196289	-0.647949	0.671387	-0.460862	0.887461	0.004419	0.337560	0.170687	0.925699	0.820768	0.428111	-0.378235
03943														0.084830	8.937172	-3.753117	0.012095	0.065882	0.004967	-0.200439	-0.645996	0.673584	-0.461335	0.887214	0.004597	0.337750	0.170828	0.925604	0.820424	0.428566	-0.378465
03944														0.147709	8.961909	-3.720709	0.010368	0.066579	0.000321	-0.198242	-0.650146	0.671387	-0.461822	0.886960	0.004736	0.337918	0.171005	0.925510	0.820080	0.429021	-0.378694
03945														0.168022	8.945782	-3.776500	0.009013	0.070900	0.009245	-0.196533	-0.641602	0.673340	-0.462321	0.886699	0.004973	0.338102	0.171095	0.925426	0.819723	0.429526	-0.378895
03946														0.172760	9.014347	-3.742197	0.006327	0.070904	0.006405	-0.194092	-0.645752	0.669189	-0.462822	0.886436	0.005182	0.338265	0.171204	0.925347	0.819374	0.430024	-0.379087
03947														0.225763	9.042195	-3.799726	0.002146	0.061716	0.006844	-0.194092	-0.647949	0.669189	-0.463253	0.886210	0.005362	0.338381	0.171285	0.925289	0.819082	0.430458	-0.379225
03948														0.190346	9.017151	-3.783025	-0.000526	0.055740	0.012100	-0.202393	-0.650146	0.669189	-0.463614	0.886020	0.005558	0.338503	0.171320	0.925238	0.818827	0.430835	-0.379347
03949														0.146882	9.023146	-3.810664	0.006763	0.047597	0.018172	-0.196289	-0.643799	0.673584	-0.463891	0.885873	0.005790	0.338710	0.171321	0.925162	0.818584	0.431136	-0.379528
03950														0.152114	9.051044	-3.764746	0.011382	0.045811	0.018746	-0.198486	-0.643799	0.669189	-0.464147	0.885737	0.006018	0.338967	0.171342	0.925064	0.818333	0.431406	-0.379764
03951														0.154116	8.981733	-3.800508	0.010126	0.039087	0.019222	-0.200684	-0.639404	0.673340	-0.464351	0.885629	0.006228	0.339206	0.171348	0.924975	0.818118	0.431626	-0.379977
03952														0.118090	8.996846	-3.796869	0.016123	0.027003	0.018984	-0.198486	-0.643799	0.669189	-0.464449	0.885577	0.006389	0.339510	0.171387	0.924856	0.817936	0.431718	-0.380263
03953														0.141092	8.927453	-3.783012	0.018128	0.035148	0.018200	-0.198486	-0.643799	0.675537	-0.464624	0.885484	0.006574	0.339810	0.171437	0.924737	0.817712	0.431889	-0.380550
03954														0.080743	8.867594	-3.733414	0.015457	0.032353	0.022128	-0.200439	-0.645996	0.673584	-0.464754	0.885414	0.006781	0.340119	0.171448	0.924621	0.817510	0.432028	-0.380827
03955														0.109200	8.860737	-3.757198	0.010813	0.027782	0.024200	-0.196289	-0.641602	0.671387	-0.464848	0.885363	0.006993	0.340387	0.171413	0.924529	0.817345	0.432146	-0.381047
03956														0.060940	8.995111	-3.747611	-0.006137	0.034990	0.028054	-0.202637	-0.645752	0.669189	-0.464980	0.885292	0.007263	0.340546	0.171279	0.924495	0.817204	0.432345	-0.381124
03957														0.058830	9.014468	-3.731876	-0.023895	0.034030	0.029404	-0.198486	-0.645752	0.671387	-0.465107	0.885222	0.007548	0.340554	0.171049	0.924535	0.817128	0.432578	-0.381022
03958														0.028202	8.983954	-3.786019	-0.024368	0.032293	0.033703	-0.204834	-0.645996	0.673340	-0.465204	0.885169	0.007862	0.340585	0.170784	0.924573	0.817060	0.432793	-0.380924
03959														0.053127	9.065810	-3.758113	-0.004421	0.031126	0.034059	-0.202637	-0.645752	0.669189	-0.465292	0.885120	0.008178	0.340774	0.170596	0.924538	0.816931	0.432967	-0.381003
03960														0.062664	9.087598	-3.784237	0.003583	0.033150	0.024938	-0.200439	-0.643799	0.669189	-0.465425	0.885047	0.008420	0.340996	0.170527	0.924469	0.816762	0.433142	-0.381165
03961														0.054064	9.124866	-3.756328	0.014746	0.030943	0.022491	-0.202637	-0.643799	0.662598	-0.465551	0.884979	0.008629	0.341288	0.170525	0.924361	0.816569	0.433282	-0.381420
03962														0.076152	9.136865	-3.765564	0.007626	0.028439	0.013422	-0.202637	-0.643799	0.666992	-0.465692	0.884904	0.008742	0.341480	0.170578	0.924280	0.816408	0.433415	-0.381614
03963														0.051803	9.074108	-3.778415	0.005939	0.029521	0.014222	-0.204834	-0.643799	0.671143	-0.465834	0.884828	0.008869	0.341662	0.170611	0.924207	0.816251	0.433557	-0.381788
03964														0.050017	9.080468	-3.705910	0.001816	0.033062	0.009353	-0.204834	-0.643799	0.679932	-0.466023	0.884727	0.008965	0.341794	0.170673	0.924147	0.816088	0.433738	-0.381932
03965														0.011097	9.067899	-3.748026	-0.000207	0.027709	0.003349	-0.200439	-0.647949	0.666992	-0.466187	0.884640	0.008985	0.341874	0.170775	0.924098	0.815960	0.433875	-0.382049
03966														0.037699	9.020934	-3.758676	-0.001462	0.026953	-0.004290	-0.198486	-0.643799	0.673584	-0.466366	0.884547	0.008927	0.341919	0.170946	0.924050	0.815840	0.433998	-0.382167
03967														-0.019733	9.024306	-3.745781	-0.000717	0.025577	0.002180	-0.202637	-0.641602	0.668945	-0.466517	0.884467	0.008928	0.341990	0.171057	0.924004	0.815724	0.434117	-0.382279
03968														-0.012632	8.964810	-3.748485	0.004813	0.020891	-0.003185	-0.204590	-0.647949	0.671387	-0.466643	0.884402	0.008855	0.342089	0.171248	0.923931	0.815610	0.434175	-0.382456
03969														0.007262	8.977097	-3.757007	0.002382	0.020560	-0.002072	-0.202393	-0.650146	0.669189	-0.466767	0.884337	0.008798	0.342165	0.171409	0.923873	0.815507	0.434244	-0.382597
03970														0.028660	9.017688	-3.718839	0.004303	0.018758	-0.004355	-0.202637	-0.645996	0.673340	-0.466888	0.884273	0.008708	0.342246	0.171605	0.923807	0.815404	0.434295	-0.382759
03971														0.060447	8.992384	-3.755905	0.000182	0.019507	-0.002446	-0.204834	-0.641602	0.671143	-0.467006	0.884212	0.008643	0.342302	0.171761	0.923757	0.815313	0.434358	-0.382881
03972														0.068305	9.001939	-3.723377	-0.004501	0.014541	-0.005856	-0.198486	-0.643799	0.671387	-0.467091	0.884168	0.008527	0.342315	0.171930	0.923721	0.815259	0.434381	-0.382971
03973														0.048846	8.989722	-3.714691	-0.006445	0.015950	-0.009036	-0.204834	-0.645996	0.671143	-0.467202	0.884111	0.008388	0.342286	0.172115	0.923697	0.815207	0.434424	-0.383032
03974														0.094871	9.024345	-3.698005	-0.009388	0.013482	-0.009098	-0.205078	-0.641602	0.677734	-0.467291	0.884065	0.008233	0.342239	0.172296	0.923681	0.815176	0.434445	-0.383074
03975														0.125395	9.040143	-3.745725	-0.011611	0.012035	-0.014938	-0.202637	-0.643799	0.673340	-0.467390	0.884015	0.008024	0.342141	0.172510	0.923677	0.815161	0.434463	-0.383087
03976														0.105221	9.028164	-3.736477	-0.011814	0.015944	-0.014767	-0.204834	-0.641602	0.668945	-0.467511	0.883953	0.007832	0.342059	0.172726	0.923667	0.815126	0.434503	-0.383115
03977														0.118245	9.019277	-3.717382	-0.012276	0.017388	-0.011792	-0.202637	-0.641602	0.666748	-0.467642	0.883884	0.007673	0.341970	0.172910	0.923666	0.815087	0.434569	-0.383122
03978														0.117853	9.019720	-3.716321	-0.010844	0.013844	-0.009784	-0.204590	-0.647949	0.671387	-0.467742	0.883833	0.007520	0.341908	0.173086	0.923656	0.815056	0.434604	-0.383149
03979														0.117690	8.979342	-3.703980	-0.000602	0.017315	-0.013048	-0.204834	-0.645996	0.671143	-0.467878	0.883763	0.007349	0.341908	0.173332	0.923610	0.814978	0.434649	-0.383264
03980														0.130544	9.010637	-3.697707	-0.000833	0.018037	-0.011560	-0.202637	-0.645996	0.673340	-0.468017	0.883690	0.007195	0.341919	0.173566	0.923562	0.814894	0.434702	-0.383382
03981														0.109402	8.969987	-3.736095	-0.001779	0.020532	-0.011075	-0.200439	-0.650146	0.675781	-0.468172	0.883609	0.007054	0.341918	0.173789	0.923520	0.814805	0.434778	-0.383486
03982														0.096399	8.898329	-3.730000	-0.008567	0.021667	-0.006573	-0.204834	-0.645752	0.666992	-0.468316	0.883534	0.006954	0.341890	0.173950	0.923500	0.814734	0.434867	-0.383535
03983														0.102208	8.920478	-3.755316	-0.009558	0.020584	-0.010236	-0.202637	-0.643799	0.673340	-0.468468	0.883454	0.006821	0.341830	0.174132	0.923488	0.814671	0.434956	-0.383567
03984														0.129337	8.942773	-3.730178	-0.010749	0.021004	-0.001485	-0.202637	-0.645996	0.677734	-0.468597	0.883386	0.006772	0.341807	0.174234	0.923477	0.814607	0.435053	-0.383594
03985														0.115104	8.924416	-3.793563	-0.018047	0.020001	0.001841	-0.202881	-0.637451	0.673340	-0.468703	0.883330	0.006748	0.341735	0.174273	0.923497	0.814576	0.435152	-0.383547
03986														0.110051	8.943784	-3.777843	-0.012159	0.024943	0.001977	-0.205078	-0.641602	0.675537	-0.468839	0.883258	0.006745	0.341729	0.174340	0.923486	0.814500	0.435272	-0.383572
03987														0.105461	8.922327	-3.750830	-0.007071	0.022094	0.005053	-0.198486	-0.645752	0.671387	-0.468951	0.883198	0.006760	0.341762	0.174397	0.923463	0.814422	0.435370	-0.383627
03988														0.100580	8.941378	-3.735840	-0.006866	0.018185	0.004881	-0.200439	-0.645752	0.669189	-0.469027	0.883158	0.006755	0.341806	0.174463	0.923435	0.814360	0.435424	-0.383696
03989														0.100305	8.954072	-3.793548	-0.009969	0.023204	0.009138	-0.205078	-0.639404	0.671143	-0.469134	0.883100	0.006811	0.341833	0.174472	0.923423	0.814287	0.435538	-0.383724
03990														0.102159	8.954550	-3.792370	-0.015782	0.025032	0.011839	-0.202881	-0.643799	0.675537	-0.469248	0.883040	0.006899	0.341834	0.174436	0.923429	0.814221	0.435675	-0.383707
03991														0.084874	8.942874	-3.782380	-0.025994	0.024751	0.013779	-0.200439	-0.645752	0.671387	-0.469352	0.882983	0.007004	0.341753	0.174335	0.923478	0.814195	0.435830	-0.383587
03992														0.125335	9.009234	-3.808297	-0.018487	0.021845	0.010287	-0.200684	-0.641602	0.673340	-0.469439	0.882937	0.007061	0.341726	0.174303	0.923494	0.814156	0.435937	-0.383547
03993														0.146550	9.022294	-3.814882	-0.014085	0.023956	0.011051	-0.206787	-0.648193	0.677734	-0.469546	0.882879	0.007138	0.341729	0.174277	0.923498	0.814093	0.436064	-0.383537
03994														0.123247	8.988307	-3.779920	-0.002709	0.018220	0.013919	-0.198486	-0.645752	0.671387	-0.469589	0.882856	0.007219	0.341852	0.174280	0.923452	0.814017	0.436110	-0.383646
03995														0.124732	9.028890	-3.791702	0.004083	0.017086	0.009424	-0.204834	-0.643799	0.668945	-0.469645	0.882825	0.007254	0.341996	0.174347	0.923386	0.813924	0.436145	-0.383804
03996														0.126284	8.988108	-3.780294	0.003839	0.017420	0.005448	-0.204834	-0.643799	0.675537	-0.469719	0.882786	0.007249	0.342122	0.174456	0.923319	0.813829	0.436180	-0.383966
03997														0.094676	8.944531	-3.778225	-0.009830	0.012535	0.006131	-0.202881	-0.641602	0.675537	-0.469749	0.882770	0.007237	0.342137	0.174492	0.923307	0.813805	0.436199	-0.383996
03998														0.116744	8.945079	-3.726500	-0.019332	0.010482	0.009066	-0.204590	-0.647949	0.669189	-0.469744	0.882773	0.007244	0.342104	0.174465	0.923324	0.813821	0.436204	-0.383954
03999														0.063901	8.983621	-3.796279	-0.032489	0.007736	0.010927	-0.200439	-0.645752	0.671387	-0.469720	0.882786	0.007257	0.341957	0.174360	0.923398	0.813897	0.436220	-0.383775
04000														0.104123	8.969079	-3.797822	-0.030797	0.006656	0.010133	-0.198486	-0.641602	0.666992	-0.469691	0.882801	0.007255	0.341821	0.174276	0.923464	0.813971	0.436223	-0.383615
04001														0.079964	8.976472	-3.772856	-0.025917	0.007710	0.013390	-0.204834	-0.643799	0.671143	-0.469658	0.882818	0.007291	0.341739	0.174178	0.923513	0.814024	0.436227	-0.383497
04002														0.107887	9.039726	-3.758236	-0.017737	-0.000168	0.012205	-0.202637	-0.645996	0.677734	-0.469565	0.882868	0.007282	0.341722	0.174132	0.923528	0.814085	0.436145	-0.383462
04003														0.146334	9.037085	-3.819640	-0.014324	0.000860	0.009303	-0.202881	-0.641602	0.671143	-0.469490	0.882908	0.007254	0.341715	0.174121	0.923533	0.814131	0.436069	-0.383451
04004														0.123176	9.031416	-3.737482	-0.014090	0.000140	0.007815	-0.200684	-0.643799	0.673340	-0.469407	0.882953	0.007208	0.341717	0.174129	0.923531	0.814179	0.435974	-0.383457
04005														0.116168	9.063259	-3.780227	-0.015278	0.002973	0.004327	-0.200439	-0.645996	0.673584	-0.469366	0.882975	0.007142	0.341679	0.174157	0.923539	0.814218	0.435918	-0.383437
04006														0.083868	9.020256	-3.776955	-0.019643	0.004059	0.002253	-0.202881	-0.639404	0.675537	-0.469334	0.882992	0.007054	0.341604	0.174193	0.923560	0.814268	0.435868	-0.383388
04007														0.072029	9.017837	-3.734845	-0.017419	0.007920	-0.004138	-0.204834	-0.641602	0.668945	-0.469363	0.882978	0.006929	0.341508	0.174287	0.923578	0.814292	0.435859	-0.383348
04008														0.051408	8.977822	-3.772351	-0.010376	0.006830	0.000809	-0.198486	-0.641602	0.673340	-0.469360	0.882980	0.006849	0.341509	0.174371	0.923562	0.814293	0.435822	-0.383389
04009														0.018987	8.975211	-3.781385	-0.010842	0.008270	0.003787	-0.205078	-0.639404	0.677734	-0.469364	0.882979	0.006798	0.341505	0.174423	0.923553	0.814292	0.435804	-0.383409
04010														0.058671	8.959828	-3.784907	-0.008676	0.006131	0.005478	-0.209229	-0.639404	0.668945	-0.469332	0.882996	0.006754	0.341545	0.174476	0.923529	0.814293	0.435749	-0.383470
04011														0.072918	8.991326	-3.777830	-0.006943	0.008623	0.008841	-0.202637	-0.650146	0.673584	-0.469322	0.883001	0.006751	0.341596	0.174500	0.923505	0.814278	0.435728	-0.383527
04012														0.081609	9.001001	-3.744527	-0.012788	0.007264	0.012850	-0.202637	-0.645996	0.675537	-0.469288	0.883019	0.006786	0.341628	0.174465	0.923500	0.814284	0.435706	-0.383538
04013														0.095006	9.004739	-3.783490	-0.019620	0.004829	0.013189	-0.204834	-0.641602	0.671143	-0.469232	0.883048	0.006809	0.341596	0.174396	0.923525	0.814330	0.435674	-0.383478
04014														0.121910	8.958643	-3.792179	-0.026892	0.006645	0.009734	-0.204590	-0.652344	0.671387	-0.469198	0.883067	0.006808	0.341501	0.174329	0.923573	0.814389	0.435664	-0.383363
04015														0.110926	8.956515	-3.749283	-0.028077	0.009482	0.006249	-0.204834	-0.643799	0.666748	-0.469204	0.883064	0.006785	0.341368	0.174285	0.923630	0.814442	0.435687	-0.383225
04016														0.104375	8.948252	-3.779255	-0.026387	0.008401	0.005452	-0.208984	-0.641602	0.664551	-0.469210	0.883061	0.006752	0.341245	0.174257	0.923681	0.814490	0.435704	-0.383103
04017														0.100794	8.996056	-3.715479	-0.029751	0.010948	0.012520	-0.202637	-0.641602	0.664551	-0.469206	0.883063	0.006792	0.341128	0.174150	0.923744	0.814541	0.435743	-0.382949
04018														0.081665	8.956508	-3.752118	-0.019335	0.007685	0.015869	-0.200195	-0.652344	0.671387	-0.469174	0.883079	0.006858	0.341115	0.174058	0.923767	0.814565	0.435746	-0.382895
04019														0.089625	8.978994	-3.776744	-0.011075	0.006940	0.022997	-0.202881	-0.641602	0.673340	-0.469102	0.883117	0.006980	0.341198	0.173940	0.923758	0.814572	0.435718	-0.382913
04020														0.086110	8.957334	-3.750046	-0.004511	0.006899	0.025457	-0.204834	-0.643799	0.675537	-0.469017	0.883160	0.007119	0.341353	0.173835	0.923721	0.814556	0.435671	-0.383001
04021														0.082564	9.016884	-3.746803	-0.004034	0.005841	0.027946	-0.204834	-0.645996	0.673340	-0.468919	0.883211	0.007283	0.341517	0.173704	0.923684	0.814543	0.435621	-0.383085
04022														0.104750	9.070092	-3.766037	-0.002811	0.006197	0.030130	-0.204834	-0.645996	0.669189	-0.468810	0.883267	0.007470	0.341716	0.173560	0.923638	0.814523	0.435564	-0.383193
04023														0.088250	9.098634	-3.768832	-0.014431	0.009497	0.030072	-0.202637	-0.643799	0.673340	-0.468735	0.883306	0.007667	0.341805	0.173365	0.923641	0.814529	0.435564	-0.383181
04024														0.110874	9.070881	-3.763961	-0.013682	0.010913	0.029769	-0.205078	-0.639404	0.677734	-0.468671	0.883338	0.007867	0.341907	0.173179	0.923639	0.814523	0.435572	-0.383184
04025														0.100029	9.121584	-3.792225	-0.014640	0.012655	0.019324	-0.209229	-0.641602	0.666748	-0.468657	0.883344	0.007976	0.341945	0.173078	0.923644	0.814515	0.435600	-0.383169
04026														0.122820	9.162494	-3.751972	-0.014649	0.012278	0.013854	-0.204834	-0.643799	0.677734	-0.468656	0.883344	0.008043	0.341974	0.173024	0.923643	0.814503	0.435621	-0.383170
04027														0.109477	9.103997	-3.803793	-0.018272	0.014411	0.006005	-0.202637	-0.647949	0.671387	-0.468703	0.883319	0.008036	0.341920	0.173024	0.923663	0.814499	0.435671	-0.383121
04028														0.122680	9.067110	-3.831226	-0.012931	0.014009	0.006283	-0.200684	-0.641602	0.671143	-0.468739	0.883300	0.008029	0.341921	0.173050	0.923658	0.814478	0.435700	-0.383134
04029														0.051850	8.998993	-3.813165	-0.001746	0.014958	0.002554	-0.204834	-0.641602	0.668945	-0.468802	0.883267	0.007993	0.341985	0.173153	0.923615	0.814415	0.435726	-0.383238
04030														0.052292	8.998983	-3.813183	0.002282	0.007435	-0.002218	-0.200439	-0.645752	0.669189	-0.468817	0.883260	0.007883	0.342068	0.173321	0.923552	0.814371	0.435674	-0.383391
04031														0.072068	8.970593	-3.809880	0.003977	0.006728	0.002454	-0.207031	-0.641602	0.673340	-0.468814	0.883263	0.007814	0.342178	0.173450	0.923488	0.814327	0.435617	-0.383549
04032														0.079721	8.938949	-3.766284	0.004716	0.007764	-0.003323	-0.202881	-0.643799	0.675537	-0.468837	0.883251	0.007696	0.342275	0.173637	0.923416	0.814273	0.435565	-0.383723
04033														0.078844	8.910882	-3.813447	0.001744	0.002865	0.008841	-0.205078	-0.637451	0.666748	-0.468779	0.883282	0.007671	0.342397	0.173700	0.923359	0.814254	0.435478	-0.383860
04034														0.112217	8.913697	-3.803520	0.001453	-0.000366	0.000692	-0.202881	-0.641602	0.673340	-0.468721	0.883314	0.007561	0.342491	0.173836	0.923299	0.814248	0.435359	-0.384007
04035														0.125598	8.985617	-3.808366	-0.006128	-0.004204	0.001329	-0.200684	-0.643799	0.673340	-0.468632	0.883362	0.007440	0.342513	0.173931	0.923273	0.814290	0.435224	-0.384072
04036														0.112123	8.954918	-3.813793	-0.017595	-0.008004	0.002379	-0.204834	-0.643799	0.675537	-0.468503	0.883432	0.007311	0.342458	0.173972	0.923286	0.814388	0.435066	-0.384045
04037														0.151115	8.980419	-3.828100	-0.018101	-0.009759	0.006665	-0.204590	-0.647949	0.671387	-0.468351	0.883513	0.007217	0.342408	0.173968	0.923305	0.814497	0.434902	-0.384000
04038														0.125769	8.987389	-3.804177	-0.016455	-0.014037	0.007168	-0.204834	-0.645996	0.673340	-0.468160	0.883615	0.007114	0.342382	0.173968	0.923314	0.814617	0.434694	-0.383979
04039														0.133287	8.997175	-3.770298	-0.015748	-0.015816	0.008166	-0.206787	-0.647949	0.673340	-0.467953	0.883726	0.007012	0.342358	0.173961	0.923325	0.814746	0.434473	-0.383956
04040														0.114439	8.985279	-3.761094	-0.012547	-0.013320	0.017699	-0.200439	-0.647949	0.666992	-0.467733	0.883842	0.007011	0.342413	0.173883	0.923319	0.814849	0.434268	-0.383970
04041														0.134547	8.998265	-3.767649	-0.018926	-0.017555	0.009580	-0.198486	-0.643799	0.673584	-0.467507	0.883962	0.006915	0.342370	0.173849	0.923341	0.814997	0.434036	-0.383918
04042														0.140916	8.980086	-3.780787	-0.010870	-0.014781	0.011428	-0.198486	-0.641602	0.673340	-0.467298	0.884073	0.006839	0.342401	0.173842	0.923331	0.815104	0.433813	-0.383944
04043														0.129120	8.977297	-3.739284	-0.014019	-0.013703	0.006068	-0.202881	-0.637451	0.673340	-0.467116	0.884171	0.006725	0.342382	0.173860	0.923335	0.815216	0.433607	-0.383937
04044														0.117173	8.974592	-3.697561	-0.015662	-0.009423	0.005569	-0.202637	-0.643799	0.673340	-0.466962	0.884253	0.006622	0.342361	0.173882	0.923338	0.815313	0.433431	-0.383930
04045														0.084582	8.931633	-3.694705	-0.016083	-0.004791	0.007254	-0.198486	-0.643799	0.671387	-0.466848	0.884313	0.006553	0.342331	0.173881	0.923350	0.815391	0.433307	-0.383903
04046														0.064368	8.932618	-3.743787	-0.014344	-0.002308	0.010624	-0.200684	-0.641602	0.673340	-0.466739	0.884371	0.006523	0.342337	0.173863	0.923351	0.815451	0.433197	-0.383902
04047														0.061053	8.939011	-3.669658	-0.014045	0.000918	0.018777	-0.207275	-0.639404	0.675537	-0.466632	0.884427	0.006582	0.342377	0.173769	0.923354	0.815495	0.433120	-0.383893
04048														0.016617	8.946320	-3.696320	-0.016190	0.003442	0.022566	-0.200684	-0.639404	0.675537	-0.466527	0.884482	0.006693	0.342435	0.173633	0.923358	0.815531	0.433063	-0.383882
04049														0.038326	8.959305	-3.702838	-0.015713	0.002381	0.025056	-0.204834	-0.643799	0.671143	-0.466410	0.884542	0.006816	0.342490	0.173476	0.923367	0.815575	0.433002	-0.383858
04050														0.066249	8.994270	-3.735286	-0.015900	0.006295	0.025251	-0.204834	-0.641602	0.673340	-0.466320	0.884589	0.006959	0.342558	0.173319	0.923371	0.815598	0.432970	-0.383845
04051														0.089494	9.035072	-3.694835	-0.016143	0.006641	0.021272	-0.204834	-0.641602	0.668945	-0.466251	0.884624	0.007064	0.342592	0.173194	0.923382	0.815623	0.432948	-0.383817
04052														0.078231	9.086111	-3.722435	-0.023636	0.009205	0.019317	-0.200684	-0.641602	0.673340	-0.466210	0.884645	0.007167	0.342568	0.173053	0.923418	0.815656	0.432962	-0.383730
04053														0.119139	9.071061	-3.724670	-0.024856	0.008857	0.017135	-0.198486	-0.643799	0.669189	-0.466174	0.884664	0.007242	0.342511	0.172927	0.923462	0.815701	0.432974	-0.383621
04054														0.080644	9.060057	-3.765068	-0.021676	0.010597	0.015725	-0.202637	-0.650146	0.675781	-0.466153	0.884674	0.007306	0.342481	0.172834	0.923491	0.815726	0.432990	-0.383551
04055														0.115131	9.063521	-3.753283	-0.016396	0.006617	0.011822	-0.198486	-0.643799	0.666992	-0.466116	0.884693	0.007323	0.342468	0.172791	0.923503	0.815752	0.432968	-0.383520
04056														0.077062	9.080138	-3.747200	-0.019602	0.004137	0.002285	-0.205078	-0.639404	0.671143	-0.466092	0.884707	0.007238	0.342387	0.172825	0.923527	0.815800	0.432927	-0.383464
04057														0.076089	9.052992	-3.792661	-0.013792	0.002658	0.005045	-0.198242	-0.645752	0.669189	-0.466046	0.884731	0.007178	0.342365	0.172854	0.923530	0.815835	0.432865	-0.383458
04058														0.062925	9.022486	-3.797859	-0.016984	0.000550	0.000982	-0.204834	-0.641602	0.668945	-0.465997	0.884758	0.007071	0.342304	0.172908	0.923542	0.815889	0.432789	-0.383431
04059														0.063037	8.982406	-3.784942	-0.017257	-0.001926	0.003774	-0.204834	-0.643799	0.671143	-0.465918	0.884800	0.006982	0.342247	0.172933	0.923559	0.815958	0.432692	-0.383393
04060														0.062976	8.983142	-3.783196	-0.021671	-0.004381	-0.002472	-0.202881	-0.641602	0.673340	-0.465843	0.884841	0.006832	0.342135	0.172993	0.923589	0.816048	0.432585	-0.383322
04061														0.082162	9.037176	-3.800307	-0.026301	-0.005747	-0.001749	-0.198486	-0.643799	0.666992	-0.465752	0.884890	0.006676	0.341978	0.173028	0.923641	0.816165	0.432470	-0.383201
04062														0.081686	8.997469	-3.786525	-0.027795	-0.008570	-0.001140	-0.200439	-0.645752	0.669189	-0.465635	0.884953	0.006515	0.341820	0.173055	0.923694	0.816299	0.432331	-0.383075
04063														0.081069	8.998543	-3.783985	-0.028873	-0.016023	-0.002224	-0.200439	-0.645996	0.673584	-0.465461	0.885046	0.006315	0.341640	0.173083	0.923756	0.816473	0.432130	-0.382931
04064														0.105805	9.034013	-3.815370	-0.024198	-0.011459	-0.004241	-0.200684	-0.643799	0.675537	-0.465331	0.885115	0.006113	0.341494	0.173153	0.923796	0.816608	0.431959	-0.382836
04065														0.092824	9.031483	-3.772955	-0.020919	-0.020024	-0.003260	-0.194092	-0.647949	0.669189	-0.465128	0.885224	0.005889	0.341375	0.173225	0.923827	0.816773	0.431709	-0.382765
04066														0.078245	9.001138	-3.777866	-0.017741	-0.018285	-0.004671	-0.200684	-0.643799	0.673340	-0.464940	0.885324	0.005651	0.341280	0.173331	0.923842	0.816920	0.431460	-0.382732
04067														0.110158	9.045341	-3.777439	-0.020211	-0.021805	-0.002265	-0.200439	-0.647949	0.669189	-0.464719	0.885441	0.005430	0.341171	0.173396	0.923870	0.817091	0.431193	-0.382667
04068														0.109151	9.046180	-3.775459	-0.024048	-0.018561	-0.003135	-0.200439	-0.650146	0.669189	-0.464528	0.885543	0.005213	0.341033	0.173456	0.923910	0.817258	0.430960	-0.382574
04069														0.082649	9.053410	-3.750669	-0.027655	-0.016034	-0.005500	-0.200684	-0.643799	0.673340	-0.464365	0.885630	0.004984	0.340848	0.173518	0.923967	0.817428	0.430756	-0.382441
04070														0.048571	9.010964	-3.746926	-0.027736	-0.022424	-0.002909	-0.194336	-0.643799	0.673584	-0.464142	0.885748	0.004755	0.340680	0.173560	0.924021	0.817624	0.430497	-0.382313
04071														0.046197	8.984122	-3.792129	-0.013794	-0.014765	-0.000907	-0.196289	-0.643799	0.666992	-0.463974	0.885837	0.004573	0.340629	0.173641	0.924024	0.817741	0.430280	-0.382307
04072														0.053076	8.993566	-3.758501	-0.011636	-0.016919	0.000771	-0.196289	-0.641602	0.671387	-0.463779	0.885940	0.004391	0.340610	0.173725	0.924015	0.817859	0.430035	-0.382330
04073														0.083740	8.969140	-3.794492	-0.012588	-0.014781	-0.004198	-0.202637	-0.643799	0.673340	-0.463622	0.886023	0.004179	0.340554	0.173841	0.924014	0.817971	0.429816	-0.382336
04074														0.071092	9.006944	-3.764145	-0.014061	-0.017244	0.001885	-0.200684	-0.641602	0.671143	-0.463420	0.886129	0.004016	0.340528	0.173899	0.924013	0.818097	0.429574	-0.382340
04075														0.070779	8.966858	-3.751286	-0.022236	-0.012524	0.004434	-0.196045	-0.647949	0.666992	-0.463252	0.886218	0.003892	0.340434	0.173896	0.924048	0.818231	0.429392	-0.382256
04076														0.076721	8.989801	-3.775152	-0.021488	-0.011111	0.004132	-0.193848	-0.650146	0.669189	-0.463099	0.886298	0.003772	0.340348	0.173903	0.924078	0.818353	0.429224	-0.382185
04077														0.082788	8.971889	-3.788010	-0.017319	-0.008315	0.006394	-0.194092	-0.643799	0.669189	-0.462959	0.886372	0.003682	0.340304	0.173905	0.924095	0.818451	0.429070	-0.382146
04078														0.070984	8.928153	-3.735124	-0.011053	-0.011232	0.006148	-0.196045	-0.654297	0.669434	-0.462796	0.886458	0.003570	0.340307	0.173944	0.924086	0.818542	0.428878	-0.382168
04079														0.057996	8.938249	-3.752094	-0.009807	-0.010530	0.013806	-0.202637	-0.645752	0.669189	-0.462612	0.886554	0.003540	0.340358	0.173912	0.924073	0.818625	0.428692	-0.382199
04080														0.020048	8.954520	-3.746652	-0.008502	-0.003795	0.013403	-0.198242	-0.647949	0.673584	-0.462491	0.886617	0.003534	0.340416	0.173890	0.924056	0.818669	0.428571	-0.382241
04081														0.048140	8.976315	-3.720961	-0.016339	-0.010092	0.016844	-0.200439	-0.643799	0.669189	-0.462301	0.886716	0.003534	0.340427	0.173803	0.924068	0.818772	0.428400	-0.382212
04082														0.061438	8.939714	-3.748549	-0.020113	-0.003291	0.020165	-0.196289	-0.645752	0.671387	-0.462155	0.886792	0.003594	0.340431	0.173672	0.924092	0.818852	0.428297	-0.382154
04083														0.082745	8.952790	-3.754850	-0.015983	-0.003695	0.023719	-0.198486	-0.643799	0.669189	-0.461994	0.886876	0.003682	0.340477	0.173525	0.924102	0.818925	0.428183	-0.382128
04084														0.072792	9.031396	-3.735421	-0.014780	-0.003710	0.020425	-0.196289	-0.645752	0.669189	-0.461844	0.886953	0.003740	0.340523	0.173416	0.924105	0.818990	0.428066	-0.382120
04085														0.080496	9.013319	-3.748665	-0.015752	-0.004406	0.022226	-0.200684	-0.641602	0.671143	-0.461681	0.887038	0.003812	0.340564	0.173284	0.924115	0.819064	0.427945	-0.382095
04086														0.068893	9.023615	-3.765193	-0.014299	-0.004778	0.022913	-0.196289	-0.643799	0.673584	-0.461514	0.887124	0.003891	0.340628	0.173154	0.924116	0.819132	0.427818	-0.382093
04087														0.066420	9.029444	-3.691091	-0.012098	-0.003740	0.023297	-0.196289	-0.641602	0.666992	-0.461354	0.887207	0.003975	0.340704	0.173028	0.924111	0.819191	0.427697	-0.382102
04088														0.074190	9.052093	-3.715640	-0.015294	-0.005830	0.019238	-0.200928	-0.639404	0.677734	-0.461189	0.887293	0.004013	0.340743	0.172929	0.924116	0.819268	0.427559	-0.382092
04089														0.075667	9.093529	-3.725187	-0.020169	-0.006831	0.015991	-0.192139	-0.643799	0.671387	-0.461027	0.887377	0.004017	0.340719	0.172833	0.924143	0.819368	0.427424	-0.382027
04090														0.057542	9.041039	-3.704413	-0.017943	-0.005436	0.021853	-0.198486	-0.641602	0.671143	-0.460849	0.887469	0.004082	0.340757	0.172699	0.924154	0.819453	0.427286	-0.381999
04091														0.032263	9.020455	-3.727396	-0.017941	-0.005435	0.021855	-0.198486	-0.643799	0.671387	-0.460679	0.887557	0.004146	0.340778	0.172561	0.924172	0.819540	0.427160	-0.381955
04092														0.034044	9.061963	-3.736783	-0.020617	-0.005397	0.018990	-0.198242	-0.652344	0.673584	-0.460518	0.887640	0.004188	0.340775	0.172438	0.924196	0.819631	0.427036	-0.381896
04093														0.029581	9.040580	-3.709078	-0.022250	-0.001110	0.018514	-0.200684	-0.639404	0.675537	-0.460395	0.887704	0.004238	0.340745	0.172311	0.924230	0.819713	0.426955	-0.381812
04094														0.031159	9.000673	-3.695776	-0.026351	-0.000341	0.020444	-0.196289	-0.645752	0.671387	-0.460268	0.887770	0.004312	0.340704	0.172150	0.924276	0.819801	0.426884	-0.381701
04095														0.038911	9.023779	-3.719276	-0.023698	-0.000731	0.017833	-0.198486	-0.647949	0.677979	-0.460151	0.887830	0.004357	0.340659	0.172022	0.924316	0.819886	0.426809	-0.381604
04096														0.040325	9.024559	-3.717368	-0.018578	0.002395	0.012816	-0.191895	-0.645752	0.671387	-0.460070	0.887872	0.004368	0.340643	0.171965	0.924332	0.819937	0.426746	-0.381564
04097														0.022264	9.053646	-3.718947	-0.017082	0.005217	0.012212	-0.200439	-0.650146	0.675781	-0.460021	0.887897	0.004383	0.340627	0.171916	0.924347	0.819972	0.426712	-0.381527
04098														0.075874	9.028377	-3.704314	-0.015629	0.004841	0.012897	-0.200684	-0.641602	0.671143	-0.459962	0.887928	0.004401	0.340632	0.171872	0.924354	0.820003	0.426667	-0.381511
04099														0.056075	8.989107	-3.742370	-0.011978	0.005499	0.013964	-0.194092	-0.650146	0.671387	-0.459909	0.887955	0.004434	0.340666	0.171829	0.924349	0.820019	0.426627	-0.381522
04100														0.018796	9.005600	-3.736612	-0.011455	0.007623	0.015161	-0.200684	-0.643799	0.673340	-0.459868	0.887976	0.004486	0.340716	0.171781	0.924340	0.820021	0.426603	-0.381544
04101														0.053421	9.008736	-3.725191	-0.020656	0.008115	0.015342	-0.194336	-0.641602	0.669189	-0.459832	0.887994	0.004542	0.340684	0.171689	0.924368	0.820054	0.426601	-0.381474
04102														0.016628	9.025744	-3.718201	-0.030053	0.009674	0.022503	-0.196045	-0.650146	0.671387	-0.459781	0.888020	0.004672	0.340620	0.171496	0.924428	0.820109	0.426626	-0.381328
04103														0.038439	9.039249	-3.723301	-0.031230	0.012539	0.019036	-0.194336	-0.641602	0.669189	-0.459768	0.888026	0.004779	0.340519	0.171326	0.924497	0.820158	0.426682	-0.381160
04104														0.104647	9.018122	-3.747646	-0.032930	0.013281	0.014372	-0.200439	-0.645752	0.669189	-0.459777	0.888021	0.004841	0.340386	0.171196	0.924570	0.820209	0.426744	-0.380982
04105														0.112156	9.041444	-3.770689	-0.025683	0.013890	0.005544	-0.198486	-0.645752	0.673584	-0.459821	0.887999	0.004828	0.340269	0.171170	0.924618	0.820233	0.426802	-0.380865
04106														0.093678	9.029907	-3.760809	-0.018906	0.013076	0.006482	-0.196045	-0.650146	0.669189	-0.459855	0.887981	0.004825	0.340220	0.171164	0.924637	0.820234	0.426840	-0.380820
04107														0.127896	9.032988	-3.749373	-0.012580	0.013686	0.010418	-0.194092	-0.645752	0.671387	-0.459881	0.887967	0.004857	0.340233	0.171150	0.924635	0.820214	0.426874	-0.380824
04108														0.134902	8.974008	-3.751975	-0.011653	0.011186	0.009904	-0.194092	-0.650146	0.677979	-0.459887	0.887964	0.004868	0.340252	0.171151	0.924628	0.820203	0.426881	-0.380841
04109														0.124198	8.970699	-3.710703	-0.007778	0.011126	0.009473	-0.202637	-0.645752	0.669189	-0.459895	0.887960	0.004881	0.340299	0.171166	0.924607	0.820178	0.426884	-0.380891
04110														0.098428	8.909098	-3.723652	-0.009474	0.009368	0.017057	-0.196289	-0.641602	0.666992	-0.459860	0.887978	0.004958	0.340376	0.171109	0.924589	0.820166	0.426869	-0.380933
04111														0.067841	8.947819	-3.743726	-0.010945	0.006898	0.023143	-0.200439	-0.645752	0.669189	-0.459787	0.888015	0.005082	0.340461	0.170989	0.924581	0.820172	0.426840	-0.380953
04112														0.050814	8.936019	-3.734514	-0.019890	0.007037	0.027307	-0.198242	-0.647949	0.666992	-0.459703	0.888057	0.005247	0.340497	0.170796	0.924603	0.820204	0.426830	-0.380896
04113														0.034005	8.924636	-3.724325	-0.032958	0.007604	0.027921	-0.200439	-0.647949	0.664795	-0.459620	0.888099	0.005417	0.340423	0.170539	0.924678	0.820282	0.426844	-0.380712
04114														0.037412	8.966800	-3.732077	-0.038524	0.005912	0.035942	-0.198486	-0.643799	0.673584	-0.459504	0.888158	0.005657	0.340337	0.170189	0.924774	0.820382	0.426863	-0.380475
04115														0.068553	9.070974	-3.725595	-0.041367	0.009877	0.033297	-0.200684	-0.639404	0.671143	-0.459421	0.888199	0.005886	0.340218	0.169849	0.924880	0.820478	0.426912	-0.380213
04116														0.110975	9.097192	-3.737421	-0.041887	0.007761	0.032103	-0.200195	-0.652344	0.666992	-0.459319	0.888250	0.006101	0.340107	0.169518	0.924982	0.820581	0.426936	-0.379963
04117														0.100185	9.067642	-3.740958	-0.032664	0.010108	0.025159	-0.200439	-0.647949	0.669189	-0.459265	0.888277	0.006255	0.340022	0.169288	0.925055	0.820646	0.426973	-0.379782
04118														0.096690	9.087190	-3.723771	-0.021072	0.009569	0.018378	-0.198242	-0.645752	0.664795	-0.459236	0.888291	0.006347	0.340001	0.169167	0.925085	0.820671	0.426990	-0.379707
04119														0.065684	9.085388	-3.732354	-0.010851	0.012954	0.015117	-0.198242	-0.645752	0.669189	-0.459240	0.888289	0.006419	0.340049	0.169119	0.925076	0.820649	0.427015	-0.379728
04120														0.067178	9.045006	-3.720279	-0.015420	0.014812	0.014569	-0.198242	-0.645752	0.666992	-0.459265	0.888276	0.006493	0.340060	0.169059	0.925083	0.820631	0.427066	-0.379710
04121														0.081003	9.049321	-3.759212	-0.015893	0.015893	0.012086	-0.194336	-0.641602	0.669189	-0.459303	0.888256	0.006548	0.340053	0.169016	0.925093	0.820613	0.427125	-0.379683
04122														0.076127	9.027614	-3.732130	-0.016393	0.016630	0.004117	-0.200439	-0.643799	0.664795	-0.459373	0.888219	0.006529	0.340011	0.169048	0.925103	0.820591	0.427188	-0.379660
04123														0.057535	9.015887	-3.722868	-0.016391	0.016631	0.004118	-0.194092	-0.643799	0.671387	-0.459445	0.888182	0.006514	0.339963	0.169074	0.925116	0.820570	0.427254	-0.379629
04124														0.039123	9.004140	-3.713660	-0.015443	0.014472	0.009086	-0.200439	-0.647949	0.666992	-0.459481	0.888164	0.006535	0.339952	0.169064	0.925121	0.820554	0.427297	-0.379615
04125														0.085700	9.010878	-3.742408	-0.018313	0.015581	0.013208	-0.200439	-0.643799	0.669189	-0.459513	0.888147	0.006599	0.339931	0.169001	0.925141	0.820546	0.427358	-0.379566
04126														0.133559	9.003942	-3.712748	-0.020117	0.009932	0.011097	-0.200684	-0.643799	0.673340	-0.459508	0.888149	0.006626	0.339890	0.168949	0.925165	0.820565	0.427373	-0.379507
04127														0.135285	9.045803	-3.721133	-0.033650	0.011603	0.009227	-0.198242	-0.645752	0.669189	-0.459521	0.888142	0.006639	0.339724	0.168856	0.925243	0.820626	0.427424	-0.379316
04128														0.122758	9.016106	-3.725240	-0.030583	0.006926	0.010373	-0.198242	-0.647949	0.671387	-0.459488	0.888159	0.006647	0.339601	0.168768	0.925305	0.820696	0.427423	-0.379166
04129														0.117930	9.035694	-3.707896	-0.026318	0.002234	0.008215	-0.198242	-0.647949	0.662598	-0.459427	0.888191	0.006614	0.339491	0.168715	0.925355	0.820776	0.427379	-0.379045
04130														0.130849	9.040473	-3.745856	-0.026316	0.002236	0.008217	-0.200684	-0.643799	0.675537	-0.459370	0.888221	0.006580	0.339381	0.168665	0.925404	0.820853	0.427336	-0.378925
04131														0.118404	9.051485	-3.761255	-0.027345	-0.001663	0.011295	-0.198242	-0.647949	0.662598	-0.459267	0.888274	0.006562	0.339276	0.168580	0.925458	0.820954	0.427258	-0.378794
04132														0.145897	9.032512	-3.722984	-0.030766	-0.003013	0.008724	-0.204590	-0.647949	0.666992	-0.459161	0.888329	0.006517	0.339140	0.168505	0.925521	0.821070	0.427173	-0.378639
04133														0.113223	8.990419	-3.719619	-0.029316	-0.003395	0.009409	-0.200439	-0.643799	0.669189	-0.459050	0.888387	0.006474	0.339010	0.168429	0.925583	0.821185	0.427083	-0.378490
04134														0.080945	8.989171	-3.727155	-0.027699	-0.007691	0.009866	-0.196045	-0.647949	0.666992	-0.458905	0.888462	0.006428	0.338906	0.168353	0.925635	0.821310	0.426957	-0.378363
04135														0.075658	9.008695	-3.709912	-0.026612	-0.000585	0.005519	-0.202637	-0.647949	0.669189	-0.458830	0.888501	0.006360	0.338781	0.168323	0.925686	0.821403	0.426887	-0.378238
04136														0.089502	8.999685	-3.689564	-0.029783	-0.002306	0.006933	-0.191895	-0.645752	0.669189	-0.458738	0.888549	0.006301	0.338641	0.168268	0.925747	0.821512	0.426809	-0.378090
04137														0.090551	9.000770	-3.686890	-0.029617	0.004771	0.015366	-0.193848	-0.650146	0.669189	-0.458674	0.888582	0.006345	0.338536	0.168137	0.925810	0.821591	0.426792	-0.377937
04138														0.078439	8.970966	-3.691420	-0.027639	0.006506	0.017260	-0.194092	-0.643799	0.669189	-0.458612	0.888613	0.006402	0.338459	0.168008	0.925861	0.821657	0.426778	-0.377810
04139														0.069110	9.049742	-3.670337	-0.019372	0.008480	0.017601	-0.194092	-0.647949	0.664795	-0.458571	0.888634	0.006480	0.338448	0.167902	0.925884	0.821684	0.426777	-0.377752
04140														0.070866	9.050419	-3.668634	-0.018117	0.011675	0.013026	-0.198242	-0.647949	0.671387	-0.458570	0.888635	0.006521	0.338431	0.167849	0.925900	0.821692	0.426797	-0.377712
04141														0.119362	9.084178	-3.649690	-0.019256	0.014890	0.015059	-0.198242	-0.647949	0.673584	-0.458590	0.888624	0.006600	0.338410	0.167765	0.925923	0.821690	0.426852	-0.377654
04142														0.102024	9.113487	-3.650804	-0.021172	0.016364	0.011897	-0.202393	-0.652344	0.669189	-0.458625	0.888605	0.006655	0.338371	0.167705	0.925948	0.821686	0.426915	-0.377592
04143														0.115392	9.077284	-3.678453	-0.022840	0.017462	0.012721	-0.198242	-0.645752	0.662598	-0.458675	0.888579	0.006722	0.338309	0.167627	0.925985	0.821684	0.427000	-0.377501
04144														0.078338	9.094395	-3.671593	-0.023944	0.023550	0.007994	-0.198486	-0.643799	0.666992	-0.458795	0.888517	0.006772	0.338220	0.167586	0.926025	0.821654	0.427146	-0.377401
04145														0.078030	9.068268	-3.717188	-0.017266	0.019167	0.004707	-0.198242	-0.647949	0.666992	-0.458885	0.888470	0.006771	0.338167	0.167603	0.926041	0.821625	0.427236	-0.377362
04146														0.072669	9.046473	-3.690129	-0.017512	0.019547	0.000722	-0.198242	-0.645752	0.669189	-0.458991	0.888415	0.006735	0.338102	0.167657	0.926055	0.821592	0.427329	-0.377328
04147														0.106357	9.049369	-3.678317	-0.019016	0.016731	0.001311	-0.194092	-0.645752	0.666992	-0.459073	0.888373	0.006694	0.338020	0.167696	0.926078	0.821580	0.427400	-0.377273
04148														0.112868	9.031638	-3.691296	-0.021906	0.017507	-0.000053	-0.202881	-0.639404	0.664551	-0.459162	0.888328	0.006639	0.337915	0.167741	0.926108	0.821574	0.427477	-0.377200
04149														0.105632	8.983226	-3.711172	-0.026054	0.015087	0.003157	-0.202393	-0.650146	0.669189	-0.459224	0.888296	0.006609	0.337784	0.167734	0.926157	0.821593	0.427546	-0.377080
04150														0.126644	9.037436	-3.727105	-0.024727	0.008289	0.006378	-0.202393	-0.647949	0.664795	-0.459221	0.888298	0.006592	0.337690	0.167701	0.926197	0.821633	0.427555	-0.376981
04151														0.173359	9.030387	-3.697011	-0.022103	0.007567	-0.001733	-0.200195	-0.652344	0.666992	-0.459238	0.888290	0.006488	0.337569	0.167755	0.926232	0.821674	0.427551	-0.376898
04152														0.185525	9.035262	-3.735178	-0.024949	-0.001981	-0.000799	-0.198242	-0.650146	0.664795	-0.459177	0.888322	0.006361	0.337431	0.167786	0.926277	0.821764	0.427472	-0.376791
04153														0.205673	8.993459	-3.671865	-0.025984	-0.005887	0.002267	-0.196045	-0.647949	0.669189	-0.459070	0.888378	0.006244	0.337296	0.167788	0.926326	0.821880	0.427354	-0.376672
04154														0.176190	8.906080	-3.731436	-0.029238	-0.011139	-0.000547	-0.200195	-0.652344	0.664795	-0.458928	0.888453	0.006078	0.337125	0.167804	0.926385	0.822029	0.427193	-0.376529
04155														0.162922	8.862321	-3.677699	-0.036580	-0.015605	-0.001420	-0.200195	-0.652100	0.660645	-0.458753	0.888544	0.005889	0.336885	0.167793	0.926474	0.822225	0.427007	-0.376313
04156														0.136506	8.829088	-3.640779	-0.051792	-0.015679	0.004312	-0.202393	-0.654297	0.666992	-0.458568	0.888641	0.005757	0.336543	0.167664	0.926621	0.822468	0.426856	-0.375952
04157														0.130313	8.808722	-3.610152	-0.067220	-0.015043	0.011556	-0.197998	-0.652344	0.665039	-0.458354	0.888752	0.005691	0.336111	0.167407	0.926825	0.822764	0.426727	-0.375451
04158														0.059732	8.825448	-3.609051	-0.080362	-0.009856	0.023427	-0.197998	-0.652344	0.665039	-0.458147	0.888858	0.005759	0.335627	0.166987	0.927076	0.823077	0.426670	-0.374829
04159														0.036919	8.875499	-3.589538	-0.087401	-0.000838	0.028502	-0.197998	-0.652344	0.665039	-0.457993	0.888936	0.005903	0.335106	0.166493	0.927353	0.823375	0.426699	-0.374141
04160														0.002458	8.976667	-3.598261	-0.076292	0.008104	0.040188	-0.202393	-0.647949	0.664795	-0.457876	0.888995	0.006190	0.334732	0.165944	0.927587	0.823592	0.426791	-0.373557
04161														0.059572	9.034788	-3.599398	-0.071764	0.016567	0.038461	-0.197998	-0.650146	0.660400	-0.457832	0.889015	0.006492	0.334385	0.165429	0.927804	0.823758	0.426949	-0.373012
04162														0.078186	9.067708	-3.586451	-0.050677	0.029553	0.048401	-0.197998	-0.652344	0.666992	-0.457865	0.888994	0.006941	0.334264	0.164913	0.927939	0.823788	0.427191	-0.372667
04163														0.084434	9.110277	-3.592681	-0.038868	0.039255	0.048814	-0.200195	-0.650146	0.664795	-0.457974	0.888935	0.007424	0.334236	0.164445	0.928032	0.823739	0.427496	-0.372426
04164														0.090588	9.152539	-3.599664	-0.033166	0.047399	0.038287	-0.197998	-0.654297	0.667236	-0.458182	0.888824	0.007841	0.334215	0.164097	0.928102	0.823632	0.427860	-0.372245
04165														0.121835	9.188650	-3.629404	-0.032675	0.059544	0.031761	-0.196289	-0.643799	0.664795	-0.458514	0.888649	0.008241	0.334160	0.163808	0.928173	0.823469	0.428334	-0.372059
04166														0.107275	9.177507	-3.618708	-0.034818	0.072088	0.027869	-0.200195	-0.652344	0.664795	-0.458956	0.888417	0.008649	0.334080	0.163549	0.928247	0.823256	0.428914	-0.371864
04167														0.071590	9.127658	-3.648125	-0.035934	0.075313	0.029938	-0.200439	-0.647949	0.662598	-0.459425	0.888170	0.009090	0.333989	0.163262	0.928330	0.823031	0.429534	-0.371646
04168														0.064606	9.124556	-3.604864	-0.029280	0.081267	0.024385	-0.204346	-0.656494	0.660645	-0.459958	0.887890	0.009503	0.333937	0.163054	0.928386	0.822754	0.430192	-0.371497
04169														0.043133	9.146090	-3.638093	-0.020190	0.077188	0.019969	-0.204346	-0.654297	0.656250	-0.460475	0.887618	0.009859	0.333930	0.162923	0.928411	0.822468	0.430802	-0.371425
04170														0.020917	9.126512	-3.661412	-0.022971	0.081515	0.022870	-0.206543	-0.656494	0.664795	-0.461027	0.887327	0.010262	0.333910	0.162752	0.928448	0.822167	0.431466	-0.371320
04171														0.005396	9.073930	-3.641849	-0.018872	0.080735	0.020944	-0.202148	-0.654297	0.660645	-0.461569	0.887040	0.010640	0.333919	0.162618	0.928468	0.821859	0.432105	-0.371259
04172														-0.007975	9.144385	-3.653080	-0.020297	0.081145	0.020279	-0.206787	-0.647949	0.662598	-0.462119	0.886750	0.011015	0.333916	0.162483	0.928493	0.821551	0.432752	-0.371186
04173														0.042010	9.151390	-3.680966	-0.020592	0.078341	0.017557	-0.204346	-0.656494	0.658447	-0.462652	0.886467	0.011352	0.333896	0.162371	0.928520	0.821259	0.433372	-0.371109
04174														0.034377	9.188942	-3.648888	-0.024680	0.078534	0.008512	-0.206299	-0.660889	0.665039	-0.463221	0.886167	0.011610	0.333804	0.162322	0.928562	0.820976	0.434004	-0.370997
04175														0.042958	9.186131	-3.719631	-0.022862	0.073217	0.001935	-0.212891	-0.652344	0.662598	-0.463764	0.885881	0.011783	0.333692	0.162338	0.928599	0.820715	0.434582	-0.370898
04176														0.072357	9.207313	-3.691939	-0.024522	0.073718	-0.008224	-0.202393	-0.652344	0.660400	-0.464347	0.885574	0.011872	0.333526	0.162434	0.928642	0.820453	0.435171	-0.370788
04177														0.054430	9.195848	-3.682464	-0.021342	0.065091	-0.007375	-0.206543	-0.654297	0.662598	-0.464854	0.885307	0.011928	0.333384	0.162540	0.928674	0.820223	0.435674	-0.370705
04178														0.048543	9.188602	-3.713452	-0.017860	0.058668	-0.014787	-0.204102	-0.660889	0.660645	-0.465332	0.885056	0.011890	0.333240	0.162730	0.928693	0.820011	0.436113	-0.370659
04179														0.056383	9.197168	-3.679138	-0.013846	0.054663	-0.015469	-0.208740	-0.652344	0.662598	-0.465780	0.884821	0.011833	0.333121	0.162940	0.928699	0.819804	0.436511	-0.370647
04180														0.062449	9.179268	-3.693015	-0.009603	0.049649	-0.023163	-0.210693	-0.656494	0.662598	-0.466214	0.884595	0.011685	0.333002	0.163238	0.928689	0.819606	0.436859	-0.370676
04181														0.053416	9.074753	-3.646934	-0.004908	0.043531	-0.028382	-0.204346	-0.652344	0.658203	-0.466614	0.884387	0.011466	0.332897	0.163601	0.928663	0.819421	0.437144	-0.370748
04182														0.084945	9.076948	-3.635792	-0.006414	0.040413	-0.033318	-0.204346	-0.652344	0.660400	-0.467007	0.884183	0.011193	0.332759	0.164001	0.928642	0.819253	0.437407	-0.370809
04183														0.097211	9.108070	-3.626988	-0.016325	0.039583	-0.032880	-0.206299	-0.656494	0.658447	-0.467390	0.883984	0.010918	0.332538	0.164353	0.928658	0.819125	0.437676	-0.370776
04184														0.147474	9.067479	-3.553368	-0.030248	0.032099	-0.035042	-0.208496	-0.656494	0.662598	-0.467720	0.883813	0.010594	0.332194	0.164667	0.928726	0.819076	0.437903	-0.370615
04185														0.151621	9.106273	-3.633243	-0.038399	0.033087	-0.042170	-0.210693	-0.654541	0.664795	-0.468080	0.883627	0.010209	0.331749	0.165005	0.928825	0.819051	0.438151	-0.370378
04186														0.175989	9.127991	-3.604191	-0.035302	0.031895	-0.036804	-0.208496	-0.656494	0.662598	-0.468411	0.883456	0.009876	0.331364	0.165306	0.928909	0.819017	0.438383	-0.370176
04187														0.160872	9.139495	-3.619287	-0.024176	0.033046	-0.035025	-0.208496	-0.656494	0.656250	-0.468746	0.883281	0.009556	0.331068	0.165643	0.928954	0.818945	0.438607	-0.370071
04188														0.171165	9.088774	-3.589639	-0.012063	0.034908	-0.035034	-0.206543	-0.654297	0.656250	-0.469101	0.883096	0.009249	0.330874	0.166031	0.928954	0.818820	0.438833	-0.370079
04189														0.148739	9.035620	-3.571687	-0.001982	0.042201	-0.037924	-0.208740	-0.654297	0.662598	-0.469520	0.882877	0.008937	0.330747	0.166491	0.928917	0.818632	0.439101	-0.370179
04190														0.166004	9.007029	-3.568712	0.001421	0.043526	-0.035309	-0.206543	-0.654297	0.660400	-0.469945	0.882653	0.008659	0.330664	0.166941	0.928866	0.818421	0.439379	-0.370315
04191														0.137612	8.930812	-3.526387	-0.000561	0.052775	-0.028429	-0.208740	-0.650146	0.658203	-0.470419	0.882403	0.008474	0.330592	0.167323	0.928823	0.818178	0.439737	-0.370427
04192														0.163870	8.951400	-3.500096	-0.010407	0.055450	-0.023745	-0.206543	-0.654297	0.660400	-0.470902	0.882146	0.008349	0.330470	0.167618	0.928813	0.817949	0.440139	-0.370455
04193														0.144489	8.954381	-3.549428	-0.019984	0.061235	-0.010819	-0.208496	-0.656494	0.658447	-0.471387	0.881887	0.008359	0.330322	0.167759	0.928840	0.817730	0.440604	-0.370386
04194														0.178406	8.957298	-3.536471	-0.026539	0.068570	-0.014238	-0.212891	-0.656494	0.664795	-0.471946	0.881588	0.008369	0.330108	0.167900	0.928891	0.817494	0.441149	-0.370259
04195														0.173566	8.991340	-3.577089	-0.022377	0.071314	-0.011885	-0.204346	-0.652344	0.660400	-0.472516	0.881282	0.008407	0.329935	0.168040	0.928927	0.817234	0.441707	-0.370168
04196														0.189458	9.049009	-3.519292	-0.019499	0.070529	-0.010497	-0.206299	-0.660645	0.656250	-0.473073	0.880983	0.008460	0.329804	0.168179	0.928949	0.816965	0.442251	-0.370112
04197														0.172924	9.119302	-3.530656	-0.012623	0.076405	-0.006484	-0.210693	-0.652344	0.658203	-0.473667	0.880662	0.008566	0.329736	0.168314	0.928948	0.816648	0.442837	-0.370111
04198														0.208051	9.121767	-3.518660	-0.008934	0.080553	-0.001101	-0.208740	-0.652344	0.660400	-0.474282	0.880330	0.008742	0.329724	0.168416	0.928934	0.816295	0.443459	-0.370143
04199														0.177750	9.120102	-3.528350	-0.014029	0.076826	-0.007146	-0.210693	-0.656494	0.658203	-0.474881	0.880005	0.008844	0.329642	0.168551	0.928939	0.815980	0.444051	-0.370128
04200														0.212644	9.137550	-3.574062	-0.010654	0.085024	-0.010951	-0.212891	-0.654297	0.660400	-0.475561	0.879637	0.008946	0.329576	0.168732	0.928929	0.815611	0.444711	-0.370150
04201														0.174757	9.113137	-3.558698	-0.014983	0.082714	-0.017268	-0.204102	-0.660645	0.656250	-0.476241	0.879269	0.008976	0.329437	0.168951	0.928938	0.815270	0.445355	-0.370125
04202														0.176046	9.113697	-3.557200	-0.014731	0.082026	-0.018763	-0.206543	-0.652344	0.656006	-0.476922	0.878900	0.008990	0.329294	0.169185	0.928947	0.814930	0.445995	-0.370104
04203														0.157024	9.075747	-3.596423	-0.020098	0.079290	-0.017811	-0.206543	-0.652344	0.656006	-0.477575	0.878545	0.009002	0.329111	0.169386	0.928975	0.814622	0.446618	-0.370033
04204														0.203967	9.083143	-3.623438	-0.018176	0.077503	-0.020129	-0.212646	-0.656494	0.653809	-0.478222	0.878193	0.008984	0.328935	0.169619	0.928995	0.814313	0.447220	-0.369984
04205														0.171513	9.040625	-3.622802	-0.016585	0.073186	-0.019711	-0.215088	-0.652344	0.662598	-0.478831	0.877861	0.008955	0.328771	0.169852	0.929010	0.814021	0.447783	-0.369946
04206														0.210789	9.010104	-3.567270	-0.014327	0.067051	-0.018339	-0.208740	-0.652344	0.662598	-0.479388	0.877558	0.008928	0.328641	0.170077	0.929015	0.813746	0.448293	-0.369935
04207														0.192106	9.013057	-3.617076	-0.008879	0.062649	-0.018321	-0.208496	-0.658691	0.662842	-0.479907	0.877275	0.008873	0.328546	0.170333	0.929002	0.813478	0.448749	-0.369969
04208														0.173159	9.001009	-3.609053	-0.013641	0.058374	-0.010938	-0.208496	-0.656494	0.658447	-0.480358	0.877028	0.008870	0.328459	0.170505	0.929001	0.813247	0.449166	-0.369971
04209														0.149525	9.063616	-3.653073	-0.027928	0.048604	-0.005005	-0.218994	-0.658691	0.653809	-0.480718	0.876830	0.008887	0.328273	0.170558	0.929057	0.813109	0.449532	-0.369830
04210														0.157659	9.072676	-3.617013	-0.038227	0.045504	0.003584	-0.210693	-0.656494	0.654053	-0.481031	0.876658	0.008981	0.328047	0.170484	0.929150	0.813016	0.449896	-0.369593
04211														0.173015	9.078859	-3.652938	-0.046701	0.044255	0.004639	-0.210693	-0.654297	0.656006	-0.481324	0.876496	0.009071	0.327754	0.170368	0.929275	0.812960	0.450255	-0.369277
04212														0.222364	9.195623	-3.648965	-0.049013	0.036493	0.001161	-0.208496	-0.658691	0.658447	-0.481568	0.876361	0.009103	0.327429	0.170271	0.929408	0.812947	0.450553	-0.368943
04213														0.236299	9.186924	-3.626563	-0.044323	0.037555	-0.004977	-0.216797	-0.658691	0.653809	-0.481838	0.876213	0.009079	0.327109	0.170249	0.929524	0.812915	0.450850	-0.368650
04214														0.230485	9.180520	-3.656020	-0.031248	0.036637	-0.010943	-0.217041	-0.656494	0.658203	-0.482123	0.876057	0.009001	0.326869	0.170336	0.929592	0.812843	0.451120	-0.368480
04215														0.230032	9.140428	-3.643582	-0.023429	0.039715	-0.012932	-0.214844	-0.656494	0.651611	-0.482437	0.875885	0.008911	0.326682	0.170479	0.929632	0.812732	0.451400	-0.368381
04216														0.184293	9.108350	-3.661200	-0.014522	0.039856	-0.011500	-0.214844	-0.654297	0.656006	-0.482752	0.875713	0.008846	0.326580	0.170641	0.929638	0.812586	0.451673	-0.368367
04217														0.144582	9.042700	-3.636543	-0.011731	0.039337	-0.004617	-0.217041	-0.656494	0.656006	-0.483035	0.875557	0.008832	0.326527	0.170763	0.929634	0.812439	0.451930	-0.368377
04218														0.125110	8.989567	-3.618652	-0.015636	0.046594	-0.005137	-0.210449	-0.660889	0.656250	-0.483381	0.875365	0.008852	0.326450	0.170866	0.929642	0.812264	0.452261	-0.368357
