// Start Time: Unknown
// Update Rate: 100.0Hz
// Filter Profile: human (46.1)
// Option Flags: AHS Disabled ICC Disabled 
// Firmware Version: 4.0.2
PacketCounter	SampleTimeFine	Year	Month	Day	Second	UTC_Nano	UTC_Year	UTC_Month	UTC_Day	UTC_Hour	UTC_Minute	UTC_Second	UTC_Valid	Acc_X	Acc_Y	Acc_Z	Gyr_X	Gyr_Y	Gyr_Z	Mag_X	Mag_Y	Mag_Z	Mat[1][1]	Mat[2][1]	Mat[3][1]	Mat[1][2]	Mat[2][2]	Mat[3][2]	Mat[1][3]	Mat[2][3]	Mat[3][3]
03584														-1.836413	9.507424	-2.638969	0.016582	-0.034304	0.006400	0.163574	-0.740723	0.489502	0.072697	0.979437	-0.188198	0.282178	0.160789	0.945792	0.956604	-0.121861	-0.264686
03585														-1.842953	9.470545	-2.660883	0.024059	-0.028105	0.003471	0.161377	-0.738770	0.491699	0.073045	0.979430	-0.188099	0.282424	0.160569	0.945756	0.956505	-0.122207	-0.264886
03586														-1.844471	9.419391	-2.630670	0.022981	-0.027591	-0.000206	0.163330	-0.738770	0.493896	0.073308	0.979415	-0.188074	0.282648	0.160446	0.945710	0.956418	-0.122487	-0.265067
03587														-1.869801	9.410016	-2.609548	0.023014	-0.022458	-0.005683	0.163574	-0.740723	0.493896	0.073576	0.979400	-0.188048	0.282890	0.160318	0.945659	0.956326	-0.122774	-0.265267
03588														-1.867761	9.405871	-2.635305	0.023900	-0.021254	-0.007397	0.165527	-0.740723	0.489502	0.073757	0.979381	-0.188074	0.283128	0.160264	0.945597	0.956242	-0.122994	-0.265470
03589														-1.884469	9.335638	-2.654253	0.022918	-0.013539	-0.005971	0.161377	-0.738770	0.489502	0.073938	0.979377	-0.188028	0.283370	0.160139	0.945546	0.956156	-0.123193	-0.265685
03590														-1.879123	9.371378	-2.635668	0.022597	-0.008036	-0.006179	0.165527	-0.738770	0.489502	0.073997	0.979376	-0.188007	0.283594	0.160075	0.945489	0.956085	-0.123281	-0.265900
03591														-1.879126	9.421170	-2.669611	0.021197	-0.002022	-0.010069	0.163574	-0.740723	0.491699	0.074055	0.979379	-0.187969	0.283822	0.159994	0.945435	0.956013	-0.123364	-0.266121
03592														-1.850291	9.414966	-2.642398	0.030724	-0.000385	-0.007318	0.165527	-0.738770	0.491699	0.074037	0.979386	-0.187939	0.284125	0.159930	0.945355	0.955924	-0.123390	-0.266427
03593														-1.837380	9.339126	-2.632468	0.027689	-0.004232	-0.016388	0.167725	-0.740723	0.491699	0.074097	0.979376	-0.187968	0.284419	0.159904	0.945270	0.955832	-0.123503	-0.266705
03594														-1.844283	9.352210	-2.687152	0.020779	-0.003725	-0.015374	0.167480	-0.736572	0.491699	0.074088	0.979366	-0.188023	0.284633	0.159932	0.945201	0.955769	-0.123546	-0.266911
03595														-1.834727	9.373867	-2.615730	0.014231	-0.007259	-0.023060	0.161377	-0.740723	0.491699	0.074156	0.979342	-0.188124	0.284804	0.159989	0.945140	0.955713	-0.123666	-0.267056
03596														-1.893214	9.380204	-2.700251	0.015768	-0.004602	-0.022978	0.163330	-0.736572	0.496094	0.074134	0.979319	-0.188253	0.284975	0.160097	0.945070	0.955664	-0.123710	-0.267213
03597														-1.860429	9.360007	-2.619749	0.019180	0.004000	-0.024662	0.165527	-0.740723	0.491699	0.074089	0.979305	-0.188340	0.285194	0.160165	0.944993	0.955602	-0.123727	-0.267425
03598														-1.904881	9.334731	-2.623836	0.019402	0.007416	-0.024747	0.165527	-0.740723	0.491699	0.073947	0.979294	-0.188453	0.285401	0.160286	0.944910	0.955551	-0.123658	-0.267639
03599														-1.846776	9.330262	-2.666723	0.015589	0.005900	-0.030427	0.163574	-0.740723	0.496094	0.073865	0.979274	-0.188591	0.285589	0.160416	0.944831	0.955501	-0.123649	-0.267821
03600														-1.846538	9.369219	-2.624062	0.018986	0.005712	-0.030049	0.163330	-0.736572	0.491699	0.073724	0.979252	-0.188759	0.285796	0.160590	0.944739	0.955450	-0.123596	-0.268028
03601														-1.873318	9.316077	-2.671091	0.011763	0.008050	-0.032678	0.163330	-0.736572	0.491699	0.073613	0.979231	-0.188912	0.285949	0.160748	0.944666	0.955413	-0.123559	-0.268177
03602														-1.837397	9.343028	-2.645860	0.004007	0.008805	-0.038858	0.167725	-0.740723	0.493896	0.073417	0.979199	-0.189155	0.286020	0.161026	0.944597	0.955407	-0.123452	-0.268248
03603														-1.834704	9.378763	-2.625865	0.001378	0.010321	-0.039188	0.163574	-0.740723	0.496094	0.073264	0.979170	-0.189365	0.286078	0.161263	0.944539	0.955401	-0.123374	-0.268304
03604														-1.804295	9.419830	-2.652566	0.001691	0.008487	-0.035545	0.165527	-0.738770	0.491699	0.073081	0.979142	-0.189578	0.286124	0.161511	0.944483	0.955402	-0.123267	-0.268352
03605														-1.766155	9.393079	-2.618506	-0.000586	0.009625	-0.041142	0.163330	-0.738770	0.493896	0.072927	0.979109	-0.189809	0.286164	0.161771	0.944426	0.955401	-0.123191	-0.268388
03606														-1.790929	9.380228	-2.619407	-0.006830	0.007909	-0.041759	0.163330	-0.734619	0.495850	0.072732	0.979071	-0.190081	0.286133	0.162091	0.944381	0.955426	-0.123075	-0.268355
03607														-1.779723	9.355291	-2.638333	-0.006043	0.014364	-0.047194	0.169678	-0.738770	0.496094	0.072514	0.979033	-0.190358	0.286125	0.162417	0.944327	0.955445	-0.122943	-0.268348
03608														-1.762910	9.366809	-2.636881	-0.007004	0.014746	-0.052618	0.169434	-0.734619	0.491699	0.072222	0.978985	-0.190715	0.286100	0.162844	0.944261	0.955474	-0.122760	-0.268327
03609														-1.794786	9.266868	-2.626024	-0.005946	0.017908	-0.045511	0.163330	-0.736572	0.493896	0.071924	0.978968	-0.190914	0.285972	0.163133	0.944250	0.955535	-0.122511	-0.268224
03610														-1.790198	9.248814	-2.597085	-0.008987	0.017716	-0.051142	0.165527	-0.740723	0.498291	0.071609	0.978926	-0.191249	0.285927	0.163548	0.944192	0.955572	-0.122295	-0.268190
03611														-1.781698	9.277840	-2.623996	-0.010445	0.022264	-0.046126	0.163574	-0.740723	0.496094	0.071206	0.978919	-0.191434	0.285810	0.163850	0.944175	0.955637	-0.121944	-0.268118
03612														-1.803002	9.261575	-2.648616	-0.009374	0.030553	-0.044496	0.167480	-0.736572	0.491699	0.070786	0.978903	-0.191672	0.285756	0.164200	0.944130	0.955684	-0.121603	-0.268105
03613														-1.760776	9.282222	-2.669810	-0.013993	0.035030	-0.043363	0.165527	-0.736572	0.496094	0.070317	0.978908	-0.191822	0.285615	0.164489	0.944123	0.955761	-0.121175	-0.268024
03614														-1.751587	9.311479	-2.696519	-0.014518	0.033452	-0.046901	0.169678	-0.740723	0.493896	0.069863	0.978890	-0.192074	0.285513	0.164868	0.944087	0.955825	-0.120797	-0.267968
03615														-1.743105	9.290262	-2.691086	-0.014847	0.030161	-0.045053	0.167480	-0.738770	0.493896	0.069460	0.978881	-0.192271	0.285388	0.165183	0.944070	0.955892	-0.120447	-0.267888
03616														-1.779361	9.298366	-2.696064	-0.013650	0.029533	-0.043124	0.165527	-0.736572	0.493896	0.069054	0.978865	-0.192499	0.285292	0.165524	0.944039	0.955950	-0.120108	-0.267832
03617														-1.809054	9.299571	-2.749006	-0.013409	0.029287	-0.046621	0.169922	-0.744873	0.496094	0.068650	0.978851	-0.192714	0.285183	0.165854	0.944014	0.956011	-0.119765	-0.267766
03618														-1.815611	9.302557	-2.724390	-0.012020	0.026945	-0.039309	0.167480	-0.738770	0.498291	0.068280	0.978837	-0.192912	0.285100	0.166156	0.943986	0.956063	-0.119454	-0.267721
03619														-1.794256	9.311125	-2.746373	-0.015295	0.026998	-0.041432	0.163330	-0.738770	0.493896	0.067919	0.978827	-0.193091	0.284984	0.166440	0.943971	0.956123	-0.119141	-0.267645
03620														-1.812604	9.335001	-2.726120	-0.014861	0.025037	-0.039548	0.167480	-0.738770	0.500488	0.067566	0.978811	-0.193297	0.284873	0.166748	0.943951	0.956181	-0.118844	-0.267570
03621														-1.836042	9.372823	-2.758551	-0.010040	0.018856	-0.035286	0.165771	-0.742920	0.493896	0.067279	0.978804	-0.193433	0.284805	0.166966	0.943933	0.956222	-0.118598	-0.267535
03622														-1.880806	9.347739	-2.760354	-0.009606	0.016895	-0.033406	0.165527	-0.738770	0.496094	0.067022	0.978788	-0.193603	0.284740	0.167207	0.943910	0.956259	-0.118389	-0.267493
03623														-1.859199	9.356446	-2.782116	-0.016809	0.010408	-0.033997	0.165283	-0.734619	0.493896	0.066826	0.978772	-0.193752	0.284596	0.167420	0.943915	0.956315	-0.118219	-0.267367
03624														-1.880853	9.434355	-2.769122	-0.023196	0.006722	-0.043426	0.167725	-0.740723	0.498291	0.066638	0.978727	-0.194043	0.284408	0.167776	0.943909	0.956385	-0.118088	-0.267177
03625														-1.839091	9.455629	-2.788578	-0.022570	0.003044	-0.036167	0.169678	-0.742920	0.496094	0.066510	0.978697	-0.194239	0.284222	0.168022	0.943921	0.956449	-0.117987	-0.266992
03626														-1.851724	9.422327	-2.783286	-0.017692	-0.001662	-0.040791	0.173828	-0.740723	0.491699	0.066409	0.978646	-0.194528	0.284084	0.168345	0.943905	0.956497	-0.117946	-0.266838
03627														-1.838417	9.437767	-2.756366	-0.017607	-0.008984	-0.047629	0.167725	-0.744873	0.487305	0.066394	0.978579	-0.194874	0.283947	0.168699	0.943883	0.956538	-0.118002	-0.266664
03628														-1.831236	9.467065	-2.781978	-0.013567	-0.018558	-0.053965	0.169434	-0.732422	0.495850	0.066417	0.978486	-0.195332	0.283858	0.169146	0.943830	0.956563	-0.118133	-0.266517
03629														-1.837144	9.415847	-2.748594	-0.008615	-0.024856	-0.051460	0.165527	-0.736572	0.496094	0.066524	0.978395	-0.195750	0.283805	0.169527	0.943777	0.956572	-0.118339	-0.266395
03630														-1.860752	9.399415	-2.771940	-0.018716	-0.031670	-0.059420	0.169678	-0.738770	0.493896	0.066658	0.978277	-0.196295	0.283670	0.170034	0.943727	0.956602	-0.118590	-0.266173
03631														-1.796589	9.368147	-2.705257	-0.021057	-0.050064	-0.069716	0.167480	-0.738770	0.493896	0.066938	0.978126	-0.196950	0.283521	0.170609	0.943668	0.956627	-0.119007	-0.265899
03632														-1.783081	9.336725	-2.769191	-0.027109	-0.071586	-0.078544	0.169678	-0.742920	0.489502	0.067400	0.977926	-0.197781	0.283319	0.171312	0.943601	0.956654	-0.119633	-0.265519
03633														-1.814109	9.273095	-2.733927	-0.038750	-0.093403	-0.086184	0.173828	-0.738770	0.491699	0.068050	0.977694	-0.198704	0.283001	0.172069	0.943559	0.956703	-0.120443	-0.264979
03634														-1.750770	9.289349	-2.720007	-0.047706	-0.115234	-0.102332	0.171875	-0.744873	0.491943	0.068863	0.977399	-0.199874	0.282619	0.173030	0.943497	0.956757	-0.121460	-0.264316
03635														-1.865361	9.316803	-2.706475	-0.048164	-0.119884	-0.089818	0.171875	-0.740723	0.491699	0.069766	0.977123	-0.200905	0.282219	0.173836	0.943469	0.956810	-0.122521	-0.263635
03636														-1.875969	9.316475	-2.700262	-0.037754	-0.116377	-0.069346	0.175781	-0.740723	0.489502	0.070683	0.976880	-0.201766	0.281911	0.174463	0.943445	0.956834	-0.123565	-0.263061
03637														-1.801209	9.315651	-2.658996	-0.023989	-0.115078	-0.059060	0.176025	-0.742920	0.496094	0.071621	0.976661	-0.202492	0.281722	0.174939	0.943413	0.956819	-0.124614	-0.262618
03638														-1.860227	9.300036	-2.585136	-0.021183	-0.103797	-0.041427	0.173828	-0.738770	0.487305	0.072496	0.976480	-0.203055	0.281553	0.175273	0.943402	0.956803	-0.125564	-0.262224
03639														-1.914705	9.332023	-2.566980	-0.029957	-0.081010	-0.035943	0.176025	-0.742920	0.491699	0.073167	0.976343	-0.203473	0.281296	0.175533	0.943430	0.956828	-0.126264	-0.261799
03640														-1.857175	9.369794	-2.559765	-0.028079	-0.059172	-0.036383	0.176025	-0.742920	0.496094	0.073630	0.976225	-0.203871	0.281058	0.175827	0.943446	0.956862	-0.126765	-0.261430
03641														-1.835976	9.469452	-2.566676	-0.019933	-0.039219	-0.039652	0.178223	-0.744873	0.487549	0.073885	0.976134	-0.204213	0.280905	0.176111	0.943439	0.956887	-0.127070	-0.261189
03642														-1.813206	9.424346	-2.580367	0.002496	-0.034420	-0.042760	0.181885	-0.736572	0.489502	0.074093	0.976036	-0.204606	0.280964	0.176428	0.943362	0.956854	-0.127384	-0.261159
03643														-1.791187	9.429381	-2.627621	0.016732	-0.032093	-0.048402	0.182129	-0.740723	0.487305	0.074277	0.975935	-0.205020	0.281161	0.176754	0.943243	0.956782	-0.127705	-0.261267
03644														-1.834547	9.348894	-2.623188	0.021709	-0.026041	-0.046301	0.179932	-0.738770	0.491699	0.074395	0.975841	-0.205425	0.281407	0.177081	0.943108	0.956700	-0.127971	-0.261435
03645														-1.865235	9.247733	-2.614510	0.018564	-0.018936	-0.045071	0.186035	-0.738770	0.489502	0.074461	0.975762	-0.205774	0.281622	0.177372	0.942989	0.956632	-0.128167	-0.261589
03646														-1.877785	9.162584	-2.580460	0.011447	-0.009597	-0.044319	0.182129	-0.742920	0.489502	0.074428	0.975693	-0.206117	0.281768	0.177693	0.942885	0.956591	-0.128254	-0.261694
03647														-1.887604	9.175670	-2.633770	0.010676	-0.000096	-0.035879	0.182129	-0.742920	0.493896	0.074348	0.975653	-0.206335	0.281901	0.177906	0.942805	0.956558	-0.128261	-0.261811
03648														-1.866012	9.133356	-2.626489	0.022611	0.000393	-0.029381	0.184082	-0.738770	0.491699	0.074260	0.975622	-0.206511	0.282143	0.178067	0.942702	0.956494	-0.128271	-0.262042
03649														-1.898119	9.137027	-2.658040	0.023896	0.001809	-0.016965	0.182129	-0.742920	0.489502	0.074204	0.975620	-0.206542	0.282394	0.178079	0.942625	0.956424	-0.128273	-0.262295
03650														-1.881585	9.151997	-2.635463	0.028739	-0.000694	-0.009344	0.182129	-0.744873	0.491943	0.074183	0.975624	-0.206532	0.282680	0.178036	0.942547	0.956342	-0.128304	-0.262582
03651														-1.892497	9.211486	-2.598008	0.030634	-0.003517	-0.009059	0.182129	-0.740723	0.485107	0.074198	0.975629	-0.206500	0.282979	0.177961	0.942472	0.956252	-0.128365	-0.262878
03652														-1.944381	9.253258	-2.663034	0.030137	0.000609	0.001327	0.182129	-0.744873	0.491943	0.074196	0.975654	-0.206386	0.283270	0.177812	0.942412	0.956166	-0.128386	-0.263181
03653														-1.924452	9.358969	-2.628157	0.027969	0.007324	0.007938	0.184082	-0.738770	0.493896	0.074159	0.975703	-0.206165	0.283527	0.177575	0.942380	0.956093	-0.128339	-0.263469
03654														-1.936526	9.429546	-2.667336	0.029128	0.011840	0.004398	0.180176	-0.742920	0.489502	0.074058	0.975747	-0.205993	0.283806	0.177397	0.942329	0.956018	-0.128249	-0.263785
03655														-1.939801	9.482726	-2.678076	0.026068	0.011633	-0.001192	0.179932	-0.738770	0.489502	0.073950	0.975786	-0.205849	0.284059	0.177254	0.942280	0.955951	-0.128155	-0.264073
03656														-1.892013	9.493238	-2.626563	0.031296	0.005125	-0.002203	0.182129	-0.742920	0.491699	0.073895	0.975809	-0.205756	0.284363	0.177138	0.942210	0.955865	-0.128134	-0.264395
03657														-1.940573	9.481018	-2.683561	0.023997	-0.006997	-0.014896	0.181885	-0.736572	0.491699	0.073925	0.975800	-0.205790	0.284603	0.177130	0.942139	0.955791	-0.128216	-0.264621
03658														-1.945047	9.432857	-2.629498	0.019254	-0.013296	-0.020466	0.186035	-0.736816	0.491699	0.073993	0.975768	-0.205918	0.284806	0.177208	0.942063	0.955725	-0.128353	-0.264792
03659														-1.965361	9.415993	-2.655662	0.012615	-0.016773	-0.026321	0.182129	-0.740723	0.491699	0.074094	0.975723	-0.206092	0.284952	0.177330	0.941996	0.955674	-0.128522	-0.264895
03660														-1.997619	9.369210	-2.653976	0.011470	-0.012613	-0.026570	0.179932	-0.738770	0.496094	0.074138	0.975681	-0.206276	0.285085	0.177477	0.941928	0.955631	-0.128639	-0.264994
03661														-2.017635	9.301761	-2.647901	0.013772	-0.012258	-0.029861	0.179932	-0.740723	0.493896	0.074169	0.975639	-0.206465	0.285244	0.177630	0.941851	0.955581	-0.128749	-0.265120
03662														-2.026267	9.264106	-2.669570	0.017398	-0.012645	-0.032989	0.179932	-0.738770	0.491699	0.074196	0.975585	-0.206709	0.285438	0.177833	0.941754	0.955521	-0.128877	-0.265275
03663														-2.023994	9.299551	-2.650811	0.024610	-0.011241	-0.027004	0.182129	-0.740723	0.491699	0.074221	0.975550	-0.206866	0.285694	0.177943	0.941656	0.955442	-0.128991	-0.265502
03664														-2.015806	9.187216	-2.661206	0.033083	-0.014114	-0.022509	0.181885	-0.738770	0.496094	0.074291	0.975513	-0.207016	0.286030	0.178023	0.941538	0.955336	-0.129161	-0.265801
03665														-1.984973	9.178173	-2.658019	0.021907	-0.014771	-0.020122	0.179932	-0.738770	0.493896	0.074374	0.975484	-0.207121	0.286258	0.178071	0.941460	0.955262	-0.129310	-0.265996
03666														-1.966821	9.189927	-2.658370	0.013880	-0.021054	-0.027781	0.186035	-0.736816	0.498291	0.074495	0.975429	-0.207338	0.286415	0.178227	0.941383	0.955205	-0.129513	-0.266100
03667														-1.983271	9.260111	-2.695501	0.010816	-0.029940	-0.029560	0.181641	-0.732666	0.496094	0.074695	0.975363	-0.207575	0.286549	0.178384	0.941312	0.955149	-0.129792	-0.266165
03668														-1.959658	9.258175	-2.642389	0.008229	-0.033590	-0.024424	0.186035	-0.738770	0.493896	0.074946	0.975297	-0.207794	0.286650	0.178514	0.941257	0.955100	-0.130107	-0.266190
03669														-1.998971	9.268734	-2.623794	0.006506	-0.036023	-0.020998	0.184082	-0.738770	0.491699	0.075231	0.975238	-0.207968	0.286736	0.178594	0.941216	0.955051	-0.130440	-0.266200
03670														-1.984051	9.284291	-2.598622	0.002419	-0.033679	-0.019734	0.184082	-0.740967	0.493896	0.075496	0.975180	-0.208144	0.286777	0.178686	0.941185	0.955018	-0.130746	-0.266170
03671														-1.953576	9.276047	-2.592656	-0.000981	-0.033535	-0.020084	0.182129	-0.740967	0.496094	0.075760	0.975126	-0.208300	0.286783	0.178765	0.941169	0.954995	-0.131040	-0.266106
03672														-1.968367	9.296303	-2.596391	-0.002292	-0.025598	-0.015205	0.187988	-0.734619	0.493896	0.075961	0.975087	-0.208411	0.286776	0.178819	0.941161	0.954981	-0.131259	-0.266048
03673														-1.937479	9.288132	-2.590549	0.002767	-0.026843	-0.019917	0.186035	-0.738770	0.496094	0.076161	0.975042	-0.208550	0.286824	0.178893	0.941132	0.954951	-0.131495	-0.266040
03674														-1.912134	9.243251	-2.605239	-0.000461	-0.023284	-0.020364	0.183838	-0.736816	0.496094	0.076325	0.974996	-0.208704	0.286838	0.178996	0.941108	0.954934	-0.131694	-0.266004
03675														-1.941675	9.236824	-2.557591	-0.002718	-0.018629	-0.024266	0.188232	-0.738770	0.493896	0.076430	0.974954	-0.208862	0.286839	0.179120	0.941084	0.954925	-0.131837	-0.265965
03676														-1.932067	9.215840	-2.552583	-0.001282	-0.019489	-0.025845	0.188232	-0.740967	0.489502	0.076542	0.974903	-0.209057	0.286850	0.179276	0.941051	0.954913	-0.131998	-0.265929
03677														-1.948153	9.145475	-2.569097	0.002784	-0.019646	-0.014875	0.183838	-0.732422	0.491699	0.076699	0.974875	-0.209132	0.286887	0.179302	0.941035	0.954889	-0.132174	-0.265927
03678														-2.012087	9.106887	-2.571633	0.002797	-0.012451	-0.009841	0.184082	-0.740723	0.489502	0.076789	0.974862	-0.209158	0.286925	0.179297	0.941024	0.954870	-0.132273	-0.265944
03679														-1.979796	9.098949	-2.566145	-0.002665	-0.005715	-0.005352	0.181885	-0.734619	0.493896	0.076827	0.974871	-0.209102	0.286901	0.179236	0.941043	0.954875	-0.132289	-0.265921
03680														-1.978542	9.189538	-2.553432	-0.003263	-0.001455	0.006748	0.181885	-0.736572	0.493896	0.076860	0.974903	-0.208942	0.286868	0.179077	0.941083	0.954882	-0.132271	-0.265904
03681														-1.969306	9.223180	-2.556455	-0.009473	0.003943	0.011207	0.184082	-0.740967	0.491699	0.076842	0.974956	-0.208702	0.286772	0.178864	0.941153	0.954912	-0.132170	-0.265846
03682														-1.989926	9.261435	-2.588391	-0.011830	0.000049	0.012857	0.188232	-0.738770	0.491699	0.076878	0.975000	-0.208481	0.286652	0.178657	0.941229	0.954945	-0.132122	-0.265751
03683														-1.978163	9.335268	-2.546455	-0.013341	0.006042	0.008986	0.186035	-0.738770	0.493896	0.076851	0.975049	-0.208261	0.286517	0.178472	0.941305	0.954988	-0.132010	-0.265652
03684														-1.993796	9.410102	-2.557937	-0.010765	0.009696	0.003852	0.188232	-0.738770	0.491699	0.076769	0.975090	-0.208099	0.286414	0.178351	0.941359	0.955025	-0.131870	-0.265588
03685														-2.019285	9.361060	-2.578459	-0.010593	0.013112	0.003756	0.187988	-0.736816	0.493896	0.076661	0.975139	-0.207913	0.286313	0.178215	0.941416	0.955064	-0.131698	-0.265533
03686														-2.030969	9.381932	-2.582304	-0.009966	0.023241	0.001724	0.185791	-0.732422	0.491699	0.076444	0.975194	-0.207735	0.286220	0.178114	0.941463	0.955110	-0.131427	-0.265504
03687														-2.051010	9.369321	-2.583283	-0.000353	0.033564	-0.001154	0.177979	-0.740723	0.489502	0.076126	0.975259	-0.207543	0.286224	0.178013	0.941481	0.955134	-0.131075	-0.265591
03688														-2.073345	9.316531	-2.629410	0.002581	0.035381	-0.002669	0.181885	-0.738770	0.491699	0.075780	0.975322	-0.207375	0.286254	0.177939	0.941486	0.955152	-0.130708	-0.265706
03689														-2.047630	9.275306	-2.621654	0.003736	0.047089	-0.001176	0.190186	-0.738770	0.496094	0.075316	0.975409	-0.207135	0.286285	0.177828	0.941498	0.955180	-0.130209	-0.265852
03690														-2.055833	9.292391	-2.651415	0.004313	0.045012	-0.001042	0.181885	-0.736572	0.493896	0.074882	0.975487	-0.206925	0.286330	0.177736	0.941501	0.955200	-0.129751	-0.266002
03691														-2.054637	9.292224	-2.652930	0.006733	0.052444	-0.001031	0.188232	-0.740967	0.496094	0.074382	0.975577	-0.206681	0.286403	0.177625	0.941500	0.955218	-0.129224	-0.266196
03692														-2.035653	9.315270	-2.730196	0.009789	0.045471	-0.000480	0.181641	-0.732422	0.491699	0.073946	0.975656	-0.206464	0.286501	0.177520	0.941490	0.955222	-0.128771	-0.266399
03693														-2.013012	9.277244	-2.698898	0.006442	0.041956	-0.004222	0.177734	-0.734619	0.493896	0.073536	0.975726	-0.206278	0.286571	0.177441	0.941484	0.955233	-0.128346	-0.266567
03694														-2.045699	9.284872	-2.705281	-0.002088	0.032610	-0.006555	0.186035	-0.736816	0.491699	0.073206	0.975778	-0.206153	0.286560	0.177411	0.941493	0.955261	-0.127998	-0.266631
03695														-1.988260	9.286512	-2.723030	-0.008424	0.030935	-0.005396	0.181641	-0.732422	0.491699	0.072892	0.975833	-0.206004	0.286485	0.177361	0.941525	0.955308	-0.127646	-0.266634
03696														-2.041098	9.231221	-2.697030	-0.011705	0.022285	-0.003696	0.184082	-0.738770	0.489502	0.072668	0.975876	-0.205879	0.286380	0.177315	0.941566	0.955356	-0.127381	-0.266586
03697														-2.055999	9.255467	-2.676795	-0.014347	0.022288	0.004823	0.181885	-0.738770	0.502686	0.072472	0.975937	-0.205659	0.286239	0.177174	0.941635	0.955414	-0.127110	-0.266511
03698														-2.013375	9.281394	-2.674199	-0.009045	0.019328	0.005471	0.181885	-0.734619	0.489502	0.072303	0.975992	-0.205456	0.286152	0.177036	0.941688	0.955452	-0.126878	-0.266482
03699														-2.003063	9.264554	-2.645228	-0.009908	0.018110	0.007180	0.186035	-0.734619	0.496094	0.072145	0.976052	-0.205224	0.286061	0.176867	0.941747	0.955492	-0.126648	-0.266450
03700														-1.993528	9.298288	-2.648081	-0.011982	0.017512	0.006985	0.179688	-0.734619	0.496094	0.071997	0.976108	-0.205011	0.285945	0.176717	0.941810	0.955538	-0.126429	-0.266390
03701														-1.978872	9.368657	-2.630338	-0.013483	0.023508	0.003122	0.183838	-0.730469	0.489258	0.071779	0.976167	-0.204806	0.285825	0.176593	0.941870	0.955590	-0.126146	-0.266337
03702														-1.944951	9.361184	-2.624228	-0.009278	0.021048	0.000123	0.177734	-0.736572	0.496094	0.071578	0.976215	-0.204649	0.285740	0.176507	0.941912	0.955630	-0.125897	-0.266310
03703														-1.947412	9.364747	-2.599926	-0.007721	0.027262	0.001850	0.179932	-0.738770	0.498291	0.071320	0.976277	-0.204444	0.285670	0.176388	0.941956	0.955671	-0.125584	-0.266312
03704														-1.901028	9.336619	-2.589705	-0.007318	0.021767	0.002067	0.179932	-0.736572	0.489502	0.071118	0.976329	-0.204267	0.285602	0.176280	0.941996	0.955706	-0.125332	-0.266305
03705														-1.947101	9.274731	-2.611931	-0.008931	0.027884	-0.000051	0.181885	-0.734619	0.493896	0.070846	0.976388	-0.204076	0.285520	0.176180	0.942040	0.955751	-0.125007	-0.266297
03706														-1.946426	9.275055	-2.611285	-0.016479	0.026830	-0.000806	0.181885	-0.734619	0.491699	0.070587	0.976441	-0.203912	0.285367	0.176111	0.942099	0.955815	-0.124689	-0.266213
03707														-1.938548	9.218285	-2.626390	-0.013944	0.025469	0.001264	0.181885	-0.736572	0.493896	0.070349	0.976498	-0.203720	0.285239	0.176006	0.942157	0.955871	-0.124389	-0.266153
03708														-1.937455	9.218734	-2.625621	-0.014695	0.031324	0.006282	0.181885	-0.736572	0.493896	0.070067	0.976569	-0.203477	0.285098	0.175866	0.942226	0.955934	-0.124030	-0.266095
03709														-1.920734	9.245979	-2.676458	-0.011126	0.033116	0.015399	0.177979	-0.740723	0.491699	0.069797	0.976661	-0.203132	0.284987	0.175620	0.942306	0.955987	-0.123660	-0.266078
03710														-1.859293	9.287988	-2.649307	-0.003462	0.034050	0.014422	0.175781	-0.736572	0.491699	0.069512	0.976749	-0.202805	0.284948	0.175387	0.942361	0.956019	-0.123294	-0.266131
03711														-1.853794	9.285043	-2.673607	-0.001852	0.027932	0.016541	0.177734	-0.736572	0.496094	0.069284	0.976837	-0.202456	0.284917	0.175114	0.942421	0.956045	-0.122978	-0.266185
03712														-1.875653	9.276047	-2.650699	-0.008248	0.022723	0.016028	0.177734	-0.734619	0.496094	0.069112	0.976914	-0.202144	0.284832	0.174871	0.942492	0.956083	-0.122715	-0.266170
03713														-1.844672	9.322610	-2.652435	-0.014578	0.022535	0.008331	0.175781	-0.738770	0.493896	0.068911	0.976981	-0.201890	0.284696	0.174697	0.942565	0.956138	-0.122431	-0.266104
03714														-1.864758	9.360929	-2.684695	-0.009279	0.019571	0.008983	0.179932	-0.740967	0.496094	0.068749	0.977041	-0.201653	0.284606	0.174524	0.942625	0.956176	-0.122197	-0.266073
03715														-1.875165	9.331370	-2.656651	-0.011528	0.015557	0.008868	0.179932	-0.736816	0.496094	0.068620	0.977100	-0.201412	0.284494	0.174340	0.942692	0.956219	-0.121988	-0.266016
03716														-1.883209	9.349155	-2.684092	-0.016766	0.014867	0.004817	0.181885	-0.736816	0.496094	0.068491	0.977147	-0.201227	0.284335	0.174216	0.942763	0.956275	-0.121787	-0.265905
03717														-1.891546	9.366957	-2.711291	-0.016073	0.012669	0.003199	0.177734	-0.736572	0.496094	0.068382	0.977191	-0.201053	0.284191	0.174096	0.942829	0.956326	-0.121610	-0.265803
03718														-1.873362	9.383339	-2.685395	-0.006051	0.008818	0.004375	0.177734	-0.738770	0.502686	0.068310	0.977230	-0.200888	0.284134	0.173964	0.942870	0.956348	-0.121486	-0.265781
03719														-1.894272	9.421471	-2.717804	-0.010364	0.012885	0.000279	0.175781	-0.738770	0.500488	0.068177	0.977270	-0.200738	0.284050	0.173865	0.942914	0.956382	-0.121305	-0.265740
03720														-1.873321	9.434442	-2.715948	-0.009729	0.007151	-0.003002	0.181885	-0.736816	0.498291	0.068100	0.977294	-0.200647	0.283963	0.173809	0.942950	0.956414	-0.121191	-0.265679
03721														-1.885076	9.404524	-2.688208	-0.001432	0.009538	-0.002194	0.181885	-0.738770	0.489502	0.067997	0.977325	-0.200530	0.283967	0.173723	0.942965	0.956420	-0.121062	-0.265716
03722														-1.956858	9.383668	-2.719701	-0.007475	0.003976	-0.007947	0.176025	-0.742920	0.491699	0.067936	0.977337	-0.200495	0.283906	0.173713	0.942985	0.956443	-0.120984	-0.265670
03723														-1.924643	9.375767	-2.713607	-0.003322	-0.002020	-0.012607	0.182129	-0.740967	0.493896	0.067925	0.977335	-0.200505	0.283881	0.173730	0.942990	0.956451	-0.120972	-0.265646
03724														-1.938189	9.396209	-2.717711	-0.003614	-0.005320	-0.010781	0.177979	-0.740723	0.491699	0.067945	0.977330	-0.200521	0.283858	0.173742	0.942994	0.956456	-0.120991	-0.265618
03725														-1.968567	9.350018	-2.715150	0.001392	-0.011585	-0.008306	0.177734	-0.732422	0.487305	0.068038	0.977324	-0.200519	0.283880	0.173712	0.942993	0.956443	-0.121083	-0.265624
03726														-2.016265	9.287823	-2.737764	-0.000169	-0.010607	-0.004981	0.179932	-0.738770	0.496094	0.068125	0.977324	-0.200494	0.283886	0.173664	0.943000	0.956435	-0.121159	-0.265618
03727														-1.999535	9.303707	-2.712531	0.002307	-0.015507	-0.004574	0.175781	-0.738770	0.496094	0.068264	0.977319	-0.200467	0.283916	0.173597	0.943004	0.956416	-0.121289	-0.265626
03728														-1.946503	9.308452	-2.705702	0.001100	-0.014884	-0.006478	0.175781	-0.736572	0.493896	0.068387	0.977311	-0.200467	0.283935	0.173562	0.943004	0.956402	-0.121409	-0.265623
03729														-1.974923	9.302084	-2.658686	0.003402	-0.023201	-0.005987	0.181885	-0.738770	0.496094	0.068583	0.977296	-0.200470	0.283978	0.173506	0.943002	0.956375	-0.121602	-0.265632
03730														-1.990639	9.282644	-2.707181	-0.004084	-0.027906	-0.010153	0.177734	-0.738770	0.496094	0.068820	0.977265	-0.200539	0.283950	0.173513	0.943009	0.956366	-0.121841	-0.265554
03731														-1.969578	9.335229	-2.660366	-0.009099	-0.030321	-0.008847	0.175781	-0.738770	0.493896	0.069085	0.977236	-0.200592	0.283880	0.173503	0.943032	0.956368	-0.122093	-0.265431
03732														-1.954485	9.401867	-2.665801	-0.006505	-0.035337	-0.010180	0.175781	-0.736572	0.493896	0.069393	0.977196	-0.200682	0.283829	0.173513	0.943045	0.956361	-0.122400	-0.265315
03733														-1.972078	9.425641	-2.645054	-0.005063	-0.036195	-0.011758	0.180176	-0.742920	0.493896	0.069696	0.977156	-0.200772	0.283793	0.173524	0.943054	0.956349	-0.122705	-0.265216
03734														-1.965012	9.408241	-2.615423	-0.004487	-0.038274	-0.011630	0.177979	-0.742920	0.498291	0.070029	0.977109	-0.200883	0.283763	0.173546	0.943059	0.956334	-0.123044	-0.265114
03735														-1.956481	9.347714	-2.654527	-0.001147	-0.034763	-0.007866	0.177734	-0.736572	0.493896	0.070334	0.977076	-0.200935	0.283764	0.173515	0.943065	0.956311	-0.123347	-0.265055
03736														-1.935637	9.400198	-2.607896	-0.006273	-0.035570	-0.013648	0.181885	-0.734619	0.491699	0.070635	0.977029	-0.201058	0.283717	0.173559	0.943070	0.956303	-0.123657	-0.264941
03737														-1.886309	9.364961	-2.645186	0.005367	-0.035364	-0.022988	0.179932	-0.738770	0.489502	0.070908	0.976968	-0.201258	0.283792	0.173669	0.943028	0.956261	-0.123983	-0.264941
03738														-1.927835	9.335661	-2.670812	0.000470	-0.037898	-0.023415	0.177490	-0.732422	0.493896	0.071203	0.976901	-0.201479	0.283817	0.173800	0.942996	0.956231	-0.124327	-0.264886
03739														-1.905351	9.243463	-2.629480	0.001968	-0.035220	-0.023335	0.181885	-0.736572	0.491699	0.071471	0.976840	-0.201680	0.283856	0.173917	0.942963	0.956200	-0.124642	-0.264852
03740														-1.904423	9.189057	-2.621239	0.005197	-0.038777	-0.022887	0.181885	-0.734619	0.482910	0.071776	0.976773	-0.201898	0.283926	0.174037	0.942919	0.956156	-0.125003	-0.264840
03741														-1.893573	9.124959	-2.684887	0.000648	-0.035969	-0.014649	0.177734	-0.734619	0.491699	0.072088	0.976724	-0.202022	0.283941	0.174071	0.942909	0.956128	-0.125334	-0.264784
03742														-1.930942	9.085121	-2.634048	0.005383	-0.038339	-0.005295	0.181885	-0.738770	0.493896	0.072439	0.976688	-0.202073	0.284000	0.174019	0.942900	0.956084	-0.125691	-0.264774
03743														-1.919580	9.064501	-2.629097	-0.000195	-0.040170	0.004737	0.183838	-0.734619	0.496094	0.072832	0.976669	-0.202022	0.284000	0.173864	0.942929	0.956054	-0.126049	-0.264711
03744														-1.940676	9.051969	-2.629015	-0.006699	-0.038079	0.011039	0.179932	-0.736572	0.493896	0.073227	0.976661	-0.201918	0.283932	0.173668	0.942986	0.956044	-0.126383	-0.264588
03745														-1.918041	9.155794	-2.613772	-0.011285	-0.040297	0.026461	0.184082	-0.740967	0.496094	0.073685	0.976679	-0.201666	0.283815	0.173317	0.943085	0.956044	-0.126727	-0.264426
03746														-1.853098	9.144353	-2.577163	-0.011906	-0.043242	0.033528	0.184082	-0.738770	0.493896	0.074193	0.976703	-0.201364	0.283680	0.172908	0.943201	0.956044	-0.127102	-0.264243
03747														-1.888315	9.207113	-2.587969	-0.021924	-0.048076	0.036181	0.179932	-0.740967	0.496094	0.074758	0.976726	-0.201041	0.283453	0.172476	0.943348	0.956068	-0.127509	-0.263962
03748														-1.873396	9.328938	-2.599529	-0.026183	-0.049152	0.037551	0.175781	-0.736572	0.489502	0.075334	0.976748	-0.200717	0.283178	0.172045	0.943510	0.956104	-0.127917	-0.263633
03749														-1.865723	9.366881	-2.575688	-0.024796	-0.046356	0.039375	0.181885	-0.736816	0.498291	0.075879	0.976781	-0.200351	0.282916	0.171583	0.943673	0.956139	-0.128287	-0.263327
03750														-1.908709	9.396619	-2.582462	-0.020300	-0.038328	0.039590	0.179932	-0.738770	0.496094	0.076356	0.976821	-0.199978	0.282695	0.171125	0.943822	0.956166	-0.128600	-0.263076
03751														-1.923525	9.374226	-2.504778	-0.014193	-0.027743	0.038125	0.183838	-0.734619	0.485107	0.076722	0.976873	-0.199581	0.282545	0.170664	0.943950	0.956181	-0.128812	-0.262917
03752														-1.935260	9.356103	-2.551986	-0.013094	-0.019572	0.037986	0.181885	-0.738770	0.487305	0.077016	0.976933	-0.199174	0.282394	0.170213	0.944077	0.956202	-0.128954	-0.262771
03753														-2.001811	9.376033	-2.537355	-0.005038	-0.015459	0.033396	0.179932	-0.736572	0.493896	0.077270	0.976991	-0.198792	0.282319	0.169786	0.944176	0.956204	-0.129079	-0.262704
03754														-1.937830	9.324441	-2.547031	0.001030	-0.001229	0.035322	0.184082	-0.738770	0.485107	0.077380	0.977070	-0.198361	0.282305	0.169343	0.944260	0.956199	-0.129066	-0.262728
03755														-1.973318	9.296415	-2.573071	0.002750	0.001212	0.031904	0.177979	-0.740723	0.493896	0.077466	0.977146	-0.197949	0.282311	0.168921	0.944334	0.956190	-0.129037	-0.262774
03756														-1.964128	9.290513	-2.621351	0.002067	0.003409	0.033528	0.177734	-0.736572	0.489502	0.077527	0.977228	-0.197524	0.282308	0.168494	0.944411	0.956186	-0.128980	-0.262817
03757														-1.994108	9.299062	-2.626836	0.000742	0.004152	0.033375	0.179932	-0.736816	0.496094	0.077576	0.977312	-0.197085	0.282295	0.168059	0.944492	0.956186	-0.128906	-0.262853
03758														-1.982618	9.332912	-2.630523	0.003147	0.004395	0.028333	0.176025	-0.742920	0.496094	0.077614	0.977386	-0.196705	0.282306	0.167680	0.944556	0.956180	-0.128842	-0.262908
03759														-1.965326	9.360236	-2.682088	-0.001182	-0.000207	0.028044	0.175781	-0.738770	0.493896	0.077686	0.977456	-0.196330	0.282285	0.167301	0.944630	0.956180	-0.128805	-0.262924
03760														-1.966698	9.414661	-2.689815	0.000934	-0.003264	0.024836	0.177979	-0.740723	0.493896	0.077787	0.977513	-0.196003	0.282278	0.166960	0.944692	0.956174	-0.128812	-0.262943
03761														-1.971073	9.472408	-2.673282	-0.005622	-0.004691	0.029503	0.179688	-0.734619	0.493896	0.077907	0.977579	-0.195625	0.282209	0.166571	0.944782	0.956184	-0.128813	-0.262905
03762														-1.965825	9.469819	-2.696586	-0.006578	-0.007949	0.020711	0.173828	-0.738770	0.493896	0.078041	0.977624	-0.195350	0.282133	0.166280	0.944855	0.956196	-0.128852	-0.262844
03763														-1.955989	9.503631	-2.699059	-0.008004	-0.017920	0.013843	0.175781	-0.736572	0.496094	0.078245	0.977646	-0.195156	0.282057	0.166049	0.944919	0.956202	-0.128980	-0.262759
03764														-1.927861	9.459574	-2.713152	-0.008789	-0.026439	0.008755	0.179932	-0.738770	0.493896	0.078522	0.977647	-0.195042	0.281969	0.165877	0.944975	0.956205	-0.129197	-0.262641
03765														-1.975852	9.441177	-2.665396	-0.012794	-0.031389	0.003231	0.175781	-0.738770	0.489502	0.078826	0.977633	-0.194985	0.281857	0.165757	0.945030	0.956213	-0.129451	-0.262487
03766														-1.981581	9.354393	-2.652123	-0.018015	-0.035712	-0.004192	0.175781	-0.736572	0.491699	0.079155	0.977600	-0.195018	0.281691	0.165724	0.945085	0.956235	-0.129743	-0.262263
03767														-1.952172	9.299441	-2.588300	-0.026392	-0.041612	-0.006597	0.179932	-0.736572	0.493896	0.079528	0.977558	-0.195078	0.281448	0.165716	0.945159	0.956275	-0.130071	-0.261953
03768														-1.987258	9.307891	-2.590407	-0.023239	-0.040032	-0.011607	0.180176	-0.742920	0.489502	0.079878	0.977507	-0.195192	0.281238	0.165762	0.945213	0.956308	-0.130397	-0.261672
03769														-1.971274	9.324150	-2.562637	-0.020341	-0.043249	-0.005930	0.182129	-0.740723	0.487305	0.080277	0.977462	-0.195255	0.281056	0.165742	0.945271	0.956328	-0.130761	-0.261416
03770														-1.978204	9.287997	-2.580945	-0.012643	-0.035152	-0.001898	0.186279	-0.740967	0.491699	0.080607	0.977433	-0.195264	0.280940	0.165680	0.945316	0.956334	-0.131057	-0.261245
03771														-1.964317	9.307383	-2.530105	-0.012930	-0.038451	-0.000058	0.177734	-0.736572	0.496094	0.080988	0.977401	-0.195263	0.280822	0.165594	0.945366	0.956337	-0.131398	-0.261065
03772														-1.941459	9.317240	-2.550961	-0.020875	-0.033988	-0.000979	0.175781	-0.740723	0.485107	0.081310	0.977375	-0.195261	0.280626	0.165534	0.945435	0.956367	-0.131668	-0.260818
03773														-1.961559	9.395623	-2.535791	-0.030505	-0.035612	-0.001870	0.179932	-0.740723	0.485107	0.081637	0.977348	-0.195260	0.280342	0.165486	0.945528	0.956422	-0.131930	-0.260482
03774														-1.936347	9.445374	-2.511021	-0.025102	-0.030022	-0.006791	0.179688	-0.734619	0.489502	0.081905	0.977317	-0.195302	0.280110	0.165488	0.945596	0.956467	-0.132155	-0.260202
03775														-1.949817	9.466514	-2.512495	-0.022878	-0.022368	-0.003292	0.177979	-0.738770	0.487305	0.082112	0.977303	-0.195284	0.279898	0.165446	0.945666	0.956512	-0.132310	-0.259960
03776														-1.914161	9.404998	-2.497243	-0.021492	-0.021721	-0.013732	0.177979	-0.740723	0.487305	0.082281	0.977272	-0.195370	0.279706	0.165512	0.945712	0.956553	-0.132460	-0.259731
03777														-1.978418	9.367325	-2.497465	-0.023425	-0.006573	-0.014395	0.179932	-0.740723	0.489502	0.082301	0.977262	-0.195413	0.279496	0.165577	0.945762	0.956613	-0.132454	-0.259513
03778														-1.967646	9.346993	-2.490855	-0.025216	-0.003864	-0.016412	0.182129	-0.742920	0.493896	0.082291	0.977249	-0.195478	0.279271	0.165673	0.945812	0.956680	-0.132423	-0.259284
03779														-1.974503	9.310809	-2.509489	-0.018374	0.003008	-0.010680	0.173828	-0.738770	0.482910	0.082230	0.977257	-0.195465	0.279113	0.165698	0.945854	0.956731	-0.132335	-0.259140
03780														-1.974933	9.268183	-2.577079	-0.009245	0.010243	-0.008257	0.175781	-0.740723	0.489502	0.082108	0.977277	-0.195416	0.279035	0.165693	0.945878	0.956764	-0.132192	-0.259089
03781														-1.996172	9.255579	-2.577450	-0.006523	0.012285	-0.006295	0.177979	-0.740723	0.491699	0.081963	0.977307	-0.195329	0.278976	0.165655	0.945902	0.956794	-0.132021	-0.259068
03782														-1.933701	9.293596	-2.574646	-0.002009	0.011619	-0.002315	0.179932	-0.738770	0.491699	0.081844	0.977339	-0.195220	0.278962	0.165583	0.945919	0.956808	-0.131877	-0.259088
03783														-1.894543	9.322260	-2.548499	-0.010559	0.013119	0.003843	0.179932	-0.738770	0.482910	0.081722	0.977384	-0.195042	0.278868	0.165455	0.945969	0.956846	-0.131698	-0.259040
03784														-1.892394	9.370222	-2.602941	-0.018979	0.008731	-0.007398	0.177979	-0.740723	0.487305	0.081617	0.977404	-0.194989	0.278696	0.165456	0.946020	0.956905	-0.131554	-0.258894
03785														-1.901986	9.388037	-2.629856	-0.014683	0.016974	-0.003712	0.175781	-0.740723	0.489502	0.081446	0.977441	-0.194872	0.278558	0.165406	0.946069	0.956960	-0.131337	-0.258803
03786														-1.910498	9.355143	-2.625086	-0.021840	0.010445	-0.004209	0.176025	-0.742920	0.487305	0.081333	0.977468	-0.194784	0.278356	0.165379	0.946133	0.957028	-0.131171	-0.258633
03787														-1.937126	9.306462	-2.645021	-0.019373	0.014227	-0.007601	0.177979	-0.742920	0.489502	0.081166	0.977497	-0.194707	0.278179	0.165371	0.946186	0.957094	-0.130962	-0.258497
03788														-1.906121	9.251268	-2.582696	-0.020621	0.009815	-0.002309	0.177734	-0.734619	0.489502	0.081065	0.977527	-0.194603	0.277987	0.165324	0.946251	0.957158	-0.130805	-0.258338
03789														-1.931270	9.151916	-2.571086	-0.020474	0.008187	0.004793	0.179932	-0.738770	0.489502	0.080994	0.977567	-0.194428	0.277796	0.165199	0.946329	0.957220	-0.130658	-0.258184
03790														-1.944004	9.082910	-2.586952	-0.017926	0.008939	0.019095	0.175781	-0.738770	0.485107	0.080960	0.977630	-0.194124	0.277612	0.164939	0.946428	0.957276	-0.130514	-0.258048
03791														-1.959968	9.067850	-2.610809	-0.010267	0.009860	0.018057	0.175781	-0.740723	0.491699	0.080913	0.977695	-0.193820	0.277505	0.164672	0.946506	0.957311	-0.130370	-0.257991
03792														-1.965612	9.035355	-2.606902	-0.008146	0.011059	0.039345	0.171631	-0.738770	0.489502	0.080915	0.977794	-0.193319	0.277398	0.164200	0.946620	0.957342	-0.130222	-0.257952
03793														-1.887620	9.104496	-2.630796	-0.010329	0.010581	0.040911	0.175781	-0.736572	0.489502	0.080911	0.977898	-0.192792	0.277275	0.163708	0.946741	0.957378	-0.130058	-0.257901
03794														-1.832582	9.305263	-2.649596	-0.010475	0.003526	0.037592	0.175781	-0.740723	0.489502	0.080980	0.977984	-0.192327	0.277147	0.163257	0.946856	0.957409	-0.129979	-0.257825
03795														-1.815511	9.426728	-2.662856	-0.005573	-0.002642	0.041779	0.177979	-0.742920	0.485107	0.081113	0.978071	-0.191830	0.277070	0.162752	0.946966	0.957420	-0.129961	-0.257792
03796														-1.812852	9.521055	-2.625050	-0.003854	-0.000196	0.038358	0.174072	-0.744873	0.487549	0.081220	0.978152	-0.191367	0.277005	0.162284	0.947065	0.957430	-0.129930	-0.257772
03797														-1.750917	9.613603	-2.629052	-0.009336	-0.002753	0.025579	0.173828	-0.740723	0.482910	0.081316	0.978212	-0.191023	0.276896	0.161941	0.947156	0.957453	-0.129912	-0.257694
03798														-1.749951	9.707648	-2.590931	-0.005973	-0.001390	0.017065	0.179932	-0.738770	0.485107	0.081375	0.978257	-0.190765	0.276828	0.161684	0.947219	0.957468	-0.129889	-0.257652
03799														-1.769523	9.695536	-2.590899	-0.013207	-0.002750	0.011119	0.171631	-0.738770	0.487305	0.081437	0.978292	-0.190561	0.276694	0.161489	0.947292	0.957501	-0.129872	-0.257536
03800														-1.822266	9.640548	-2.564423	-0.008801	0.003250	0.000807	0.173828	-0.742920	0.489502	0.081407	0.978317	-0.190444	0.276612	0.161396	0.947332	0.957527	-0.129799	-0.257476
03801														-1.843352	9.628145	-2.564455	-0.012626	0.010422	-0.008582	0.171875	-0.740723	0.482910	0.081274	0.978339	-0.190388	0.276505	0.161390	0.947364	0.957570	-0.129639	-0.257399
03802														-1.831725	9.607502	-2.559672	-0.004106	0.012556	-0.011335	0.171875	-0.740723	0.482910	0.081121	0.978357	-0.190363	0.276478	0.161409	0.947369	0.957591	-0.129482	-0.257400
03803														-1.852513	9.501213	-2.598161	0.001874	0.016069	-0.016136	0.167725	-0.744873	0.489502	0.080918	0.978373	-0.190362	0.276506	0.161457	0.947352	0.957599	-0.129294	-0.257461
03804														-1.882335	9.404093	-2.564977	0.003951	0.016659	-0.015949	0.171875	-0.742920	0.485107	0.080713	0.978389	-0.190370	0.276560	0.161511	0.947327	0.957601	-0.129110	-0.257547
03805														-1.889010	9.367312	-2.586395	0.002627	0.017404	-0.016099	0.175781	-0.740723	0.489502	0.080487	0.978409	-0.190362	0.276599	0.161556	0.947308	0.957609	-0.128900	-0.257624
03806														-1.877768	9.346259	-2.582827	0.003951	0.016659	-0.015946	0.173828	-0.740723	0.487305	0.080283	0.978424	-0.190369	0.276653	0.161610	0.947283	0.957610	-0.128717	-0.257710
03807														-1.885421	9.360347	-2.635431	-0.002244	0.011249	-0.019913	0.177979	-0.742920	0.482910	0.080116	0.978428	-0.190422	0.276655	0.161704	0.947267	0.957624	-0.128572	-0.257732
03808														-1.853766	9.352019	-2.630226	-0.002533	0.007946	-0.018083	0.176025	-0.744873	0.483154	0.079989	0.978428	-0.190472	0.276648	0.161787	0.947254	0.957636	-0.128463	-0.257740
03809														-1.876299	9.339131	-2.630920	-0.004863	0.000412	-0.019850	0.179932	-0.740723	0.480713	0.079938	0.978417	-0.190553	0.276616	0.161883	0.947248	0.957650	-0.128431	-0.257705
03810														-1.857211	9.351551	-2.629459	-0.005723	-0.000812	-0.018137	0.178223	-0.744873	0.487549	0.079894	0.978406	-0.190626	0.276578	0.161970	0.947243	0.957664	-0.128403	-0.257665
03811														-1.880020	9.338701	-2.629792	-0.006440	-0.005786	-0.021581	0.176025	-0.742920	0.487305	0.079902	0.978383	-0.190743	0.276535	0.162087	0.947236	0.957676	-0.128433	-0.257607
03812														-1.872843	9.320967	-2.600660	-0.009555	-0.011017	-0.019972	0.174072	-0.744873	0.485352	0.079951	0.978356	-0.190860	0.276463	0.162197	0.947238	0.957693	-0.128498	-0.257511
03813														-1.853434	9.282653	-2.567001	-0.012275	-0.013055	-0.021937	0.180176	-0.747070	0.483154	0.080014	0.978325	-0.190993	0.276365	0.162322	0.947245	0.957716	-0.128576	-0.257387
03814														-1.876502	9.269912	-2.566680	-0.009842	-0.014320	-0.018141	0.173828	-0.740723	0.485107	0.080099	0.978297	-0.191101	0.276289	0.162415	0.947252	0.957731	-0.128673	-0.257283
03815														-1.914681	9.280789	-2.547053	-0.001825	-0.006569	-0.019342	0.171875	-0.742920	0.487305	0.080114	0.978277	-0.191194	0.276287	0.162502	0.947237	0.957730	-0.128711	-0.257266
03816														-1.891549	9.239251	-2.538424	-0.001037	-0.006756	-0.010462	0.171875	-0.742920	0.482910	0.080148	0.978271	-0.191211	0.276288	0.162508	0.947236	0.957727	-0.128749	-0.257260
03817														-1.876952	9.215442	-2.558008	-0.003759	0.002009	-0.003944	0.171875	-0.740723	0.487305	0.080109	0.978290	-0.191129	0.276255	0.162444	0.947256	0.957740	-0.128685	-0.257244
03818														-1.880114	9.218622	-2.533509	-0.006801	0.000303	-0.000672	0.173828	-0.742920	0.482910	0.080103	0.978309	-0.191035	0.276194	0.162363	0.947288	0.957758	-0.128644	-0.257197
03819														-1.835234	9.240978	-2.555341	-0.000610	0.005718	0.003294	0.169678	-0.742920	0.491699	0.080051	0.978344	-0.190877	0.276186	0.162225	0.947314	0.957765	-0.128551	-0.257219
03820														-1.828493	9.234949	-2.603442	-0.001039	0.006163	0.010277	0.173828	-0.742920	0.482910	0.080019	0.978389	-0.190664	0.276171	0.162028	0.947352	0.957772	-0.128462	-0.257237
03821														-1.762476	9.312604	-2.555643	-0.002327	0.003269	0.006716	0.174072	-0.744873	0.487549	0.079995	0.978427	-0.190479	0.276147	0.161859	0.947388	0.957780	-0.128387	-0.257242
03822														-1.751180	9.393814	-2.614313	0.002040	-0.004459	0.007366	0.173584	-0.736572	0.485107	0.080057	0.978452	-0.190320	0.276164	0.161687	0.947413	0.957770	-0.128407	-0.257269
03823														-1.739614	9.466783	-2.572343	-0.007015	-0.008162	0.006591	0.177979	-0.742920	0.487305	0.080149	0.978474	-0.190170	0.276096	0.161527	0.947460	0.957782	-0.128443	-0.257207
03824														-1.745036	9.473232	-2.523615	-0.004294	-0.006123	0.008557	0.176025	-0.740723	0.478516	0.080230	0.978500	-0.190005	0.276051	0.161351	0.947503	0.957788	-0.128469	-0.257171
03825														-1.790509	9.502074	-2.532228	-0.008268	-0.006005	-0.004151	0.171875	-0.740723	0.491699	0.080284	0.978505	-0.189955	0.275976	0.161299	0.947534	0.957806	-0.128495	-0.257094
03826														-1.826221	9.462533	-2.480671	-0.015856	-0.003397	-0.001445	0.182129	-0.740723	0.487305	0.080311	0.978518	-0.189877	0.275828	0.161236	0.947587	0.957846	-0.128475	-0.256954
03827														-1.834955	9.429518	-2.476197	-0.010666	0.002426	-0.002867	0.169922	-0.747070	0.489746	0.080280	0.978536	-0.189794	0.275740	0.161176	0.947623	0.957874	-0.128409	-0.256883
03828														-1.840181	9.384985	-2.395878	-0.009557	0.010594	-0.002994	0.173828	-0.740723	0.482910	0.080169	0.978565	-0.189695	0.275654	0.161120	0.947658	0.957908	-0.128263	-0.256829
03829														-1.839596	9.342597	-2.464362	-0.005155	0.018719	-0.001039	0.176025	-0.744873	0.485352	0.079979	0.978609	-0.189545	0.275608	0.161030	0.947686	0.957937	-0.128035	-0.256834
03830														-1.827635	9.372909	-2.491641	-0.002722	0.026143	-0.001013	0.173828	-0.740723	0.482910	0.079725	0.978661	-0.189387	0.275586	0.160947	0.947707	0.957965	-0.127748	-0.256874
03831														-1.800591	9.379286	-2.539385	0.006120	0.027956	-0.008998	0.176025	-0.744873	0.485352	0.079435	0.978702	-0.189293	0.275653	0.160922	0.947692	0.957969	-0.127459	-0.257000
03832														-1.784838	9.355289	-2.560542	0.010375	0.031141	0.001887	0.169922	-0.744873	0.493896	0.079141	0.978764	-0.189095	0.275755	0.160793	0.947684	0.957965	-0.127144	-0.257174
03833														-1.780424	9.301132	-2.554311	0.004116	0.022202	-0.003747	0.171631	-0.738770	0.489502	0.078910	0.978808	-0.188964	0.275805	0.160719	0.947682	0.957969	-0.126899	-0.257278
03834														-1.822957	9.326666	-2.587797	-0.009160	0.013788	-0.006568	0.171875	-0.744873	0.487549	0.078759	0.978835	-0.188890	0.275725	0.160698	0.947709	0.958004	-0.126722	-0.257233
03835														-1.849232	9.277828	-2.608959	-0.010919	0.014975	0.000265	0.174072	-0.744873	0.483154	0.078608	0.978876	-0.188739	0.275628	0.160604	0.947753	0.958045	-0.126523	-0.257181
03836														-1.854552	9.284394	-2.559886	-0.016829	0.014979	0.006725	0.169678	-0.736572	0.482910	0.078482	0.978925	-0.188537	0.275465	0.160462	0.947824	0.958102	-0.126323	-0.257066
03837														-1.889724	9.296055	-2.539614	-0.019192	0.011082	0.008364	0.171631	-0.738770	0.478516	0.078399	0.978974	-0.188320	0.275274	0.160299	0.947907	0.958164	-0.126154	-0.256919
03838														-1.882987	9.333050	-2.517383	-0.014686	0.010406	0.012346	0.173828	-0.738770	0.485107	0.078332	0.979026	-0.188076	0.275127	0.160100	0.947984	0.958211	-0.126002	-0.256816
03839														-1.909002	9.386517	-2.600915	-0.014300	0.015710	0.021036	0.171875	-0.744873	0.483154	0.078243	0.979099	-0.187730	0.274974	0.159808	0.948077	0.958263	-0.125801	-0.256723
03840														-1.889759	9.453812	-2.606356	-0.011145	0.017306	0.016024	0.169678	-0.742920	0.485107	0.078119	0.979166	-0.187433	0.274858	0.159567	0.948151	0.958306	-0.125586	-0.256667
03841														-1.837942	9.512851	-2.606971	-0.005875	0.015858	0.007784	0.165527	-0.738770	0.487305	0.077986	0.979220	-0.187208	0.274796	0.159393	0.948199	0.958335	-0.125391	-0.256655
03842														-1.853915	9.446559	-2.600302	-0.007379	0.013187	0.007711	0.173828	-0.740723	0.489502	0.077880	0.979268	-0.187001	0.274723	0.159229	0.948248	0.958364	-0.125223	-0.256626
03843														-1.862529	9.464487	-2.627831	-0.011273	0.008149	0.000427	0.167725	-0.742920	0.485107	0.077793	0.979300	-0.186867	0.274624	0.159135	0.948292	0.958400	-0.125089	-0.256560
03844														-1.882648	9.401241	-2.596388	-0.016239	0.010798	-0.005413	0.169678	-0.742920	0.485107	0.077674	0.979324	-0.186791	0.274476	0.159111	0.948339	0.958452	-0.124930	-0.256443
03845														-1.873080	9.341494	-2.635811	-0.016702	0.012769	-0.007271	0.173828	-0.742920	0.489502	0.077524	0.979350	-0.186716	0.274324	0.159097	0.948385	0.958507	-0.124744	-0.256326
03846														-1.905652	9.298886	-2.608531	-0.012487	0.008783	-0.001467	0.169678	-0.740723	0.491699	0.077435	0.979378	-0.186607	0.274209	0.159030	0.948430	0.958547	-0.124611	-0.256240
03847														-1.917219	9.268856	-2.580539	-0.008978	0.008520	-0.002874	0.171875	-0.740723	0.480713	0.077338	0.979405	-0.186507	0.274139	0.158967	0.948461	0.958575	-0.124481	-0.256199
03848														-1.881696	9.308852	-2.630276	-0.002468	0.004906	-0.000376	0.171875	-0.742920	0.485107	0.077289	0.979430	-0.186397	0.274119	0.158876	0.948481	0.958585	-0.124402	-0.256201
03849														-1.863790	9.324622	-2.604946	-0.005116	0.006395	-0.000676	0.171875	-0.744873	0.480957	0.077229	0.979456	-0.186282	0.274073	0.158786	0.948510	0.958603	-0.124307	-0.256179
03850														-1.855039	9.358074	-2.607697	-0.005798	0.008585	0.000958	0.169922	-0.747070	0.485352	0.077147	0.979488	-0.186150	0.274020	0.158686	0.948542	0.958625	-0.124186	-0.256157
03851														-1.849944	9.445464	-2.617936	-0.001075	0.007687	0.001447	0.171875	-0.740723	0.487305	0.077079	0.979520	-0.186008	0.274007	0.158568	0.948565	0.958634	-0.124082	-0.256174
03852														-1.825047	9.404133	-2.609790	0.002435	0.007424	0.000040	0.167969	-0.747070	0.487549	0.077006	0.979549	-0.185888	0.274034	0.158467	0.948574	0.958632	-0.123986	-0.256227
03853														-1.807420	9.419715	-2.584932	0.000049	0.005059	-0.007171	0.165771	-0.742920	0.485107	0.076933	0.979564	-0.185835	0.274047	0.158434	0.948576	0.958634	-0.123904	-0.256258
03854														-1.778523	9.465574	-2.586986	-0.001565	0.002497	-0.005501	0.167969	-0.747070	0.485352	0.076892	0.979578	-0.185781	0.274040	0.158392	0.948585	0.958639	-0.123850	-0.256265
03855														-1.820628	9.440225	-2.589034	-0.001958	0.007994	-0.005688	0.167725	-0.744873	0.491699	0.076791	0.979601	-0.185702	0.274027	0.158343	0.948597	0.958651	-0.123731	-0.256278
03856														-1.820326	9.389202	-2.557732	-0.000524	0.007140	-0.007283	0.165771	-0.742920	0.489502	0.076701	0.979617	-0.185652	0.274031	0.158318	0.948600	0.958657	-0.123633	-0.256303
03857														-1.796354	9.347729	-2.549465	-0.000303	0.006922	-0.010775	0.171875	-0.740723	0.489502	0.076589	0.979631	-0.185625	0.274047	0.158319	0.948595	0.958662	-0.123522	-0.256340
03858														-1.808481	9.317272	-2.522601	0.002945	0.010513	-0.005270	0.171875	-0.740723	0.480713	0.076473	0.979655	-0.185548	0.274083	0.158269	0.948593	0.958661	-0.123397	-0.256404
03859														-1.829743	9.304423	-2.524094	0.002414	0.008958	-0.008800	0.169678	-0.742920	0.487305	0.076366	0.979671	-0.185505	0.274120	0.158251	0.948586	0.958659	-0.123291	-0.256462
03860														-1.817821	9.283616	-2.520175	-0.001028	0.012746	-0.005722	0.169922	-0.747070	0.483154	0.076227	0.979697	-0.185426	0.274118	0.158211	0.948593	0.958670	-0.123137	-0.256493
03861														-1.817869	9.283557	-2.520358	0.000075	0.012221	-0.002079	0.167969	-0.749023	0.489746	0.076104	0.979729	-0.185307	0.274123	0.158127	0.948606	0.958679	-0.122990	-0.256532
03862														-1.812094	9.319816	-2.499995	0.005224	0.021682	-0.000061	0.167725	-0.740723	0.489502	0.075895	0.979775	-0.185152	0.274177	0.158024	0.948607	0.958680	-0.122759	-0.256638
03863														-1.808200	9.316731	-2.524799	0.003849	0.017367	0.006958	0.169678	-0.742920	0.485107	0.075739	0.979828	-0.184932	0.274218	0.157846	0.948625	0.958680	-0.122560	-0.256731
03864														-1.783708	9.368804	-2.479559	0.004275	0.027726	0.008486	0.169922	-0.744873	0.483154	0.075495	0.979895	-0.184680	0.274256	0.157660	0.948645	0.958689	-0.122268	-0.256839
03865														-1.767782	9.396077	-2.531453	0.002637	0.018003	0.005064	0.169678	-0.742920	0.489502	0.075341	0.979944	-0.184480	0.274280	0.157504	0.948664	0.958694	-0.122073	-0.256912
03866														-1.790509	9.386548	-2.509054	0.001157	0.022492	0.010079	0.167725	-0.742920	0.485107	0.075152	0.980007	-0.184226	0.274287	0.157306	0.948695	0.958707	-0.121827	-0.256981
03867														-1.804545	9.410467	-2.489384	-0.006281	0.021354	0.007610	0.165771	-0.744873	0.482910	0.074968	0.980064	-0.183993	0.274229	0.157136	0.948740	0.958738	-0.121581	-0.256981
03868														-1.797017	9.404694	-2.537257	-0.006673	0.026852	0.007428	0.169678	-0.740723	0.485107	0.074730	0.980128	-0.183754	0.274163	0.156974	0.948786	0.958775	-0.121281	-0.256984
03869														-1.790421	9.441254	-2.516349	-0.003509	0.028451	0.002424	0.163574	-0.744873	0.487305	0.074467	0.980186	-0.183551	0.274130	0.156850	0.948816	0.958805	-0.120972	-0.257018
03870														-1.798005	9.408083	-2.513425	-0.004081	0.030532	0.002315	0.169922	-0.747070	0.491943	0.074179	0.980245	-0.183350	0.274092	0.156735	0.948845	0.958838	-0.120639	-0.257051
03871														-1.776354	9.420833	-2.512485	-0.003284	0.028233	-0.001064	0.163574	-0.744873	0.485107	0.073902	0.980298	-0.183180	0.274071	0.156645	0.948866	0.958866	-0.120327	-0.257094
03872														-1.787581	9.390577	-2.485625	-0.002306	0.029351	-0.004513	0.161377	-0.740723	0.482910	0.073606	0.980345	-0.183047	0.274056	0.156595	0.948879	0.958893	-0.120009	-0.257143
03873														-1.801794	9.371857	-2.535092	-0.003450	0.033513	-0.004732	0.165771	-0.747070	0.483154	0.073267	0.980399	-0.182894	0.274026	0.156539	0.948897	0.958927	-0.119641	-0.257186
03874														-1.783387	9.387546	-2.510395	-0.000211	0.037105	0.000784	0.167969	-0.747070	0.489746	0.072912	0.980463	-0.182690	0.274028	0.156434	0.948914	0.958954	-0.119249	-0.257268
03875														-1.803272	9.374920	-2.512148	-0.000391	0.033689	0.000858	0.163818	-0.747070	0.487549	0.072595	0.980524	-0.182489	0.274027	0.156321	0.948933	0.958978	-0.118894	-0.257342
03876														-1.808567	9.389536	-2.564838	-0.003447	0.033515	-0.004724	0.161865	-0.749023	0.494141	0.072259	0.980575	-0.182347	0.274001	0.156274	0.948948	0.959011	-0.118533	-0.257387
03877														-1.766320	9.414905	-2.562632	-0.006503	0.031807	-0.001465	0.165771	-0.744873	0.491699	0.071941	0.980632	-0.182168	0.273948	0.156190	0.948977	0.959050	-0.118175	-0.257406
03878														-1.777469	9.384714	-2.535618	-0.003741	0.030208	-0.002903	0.163818	-0.747070	0.483154	0.071642	0.980682	-0.182017	0.273918	0.156125	0.948996	0.959081	-0.117845	-0.257442
03879														-1.806437	9.338926	-2.533403	-0.014688	0.029333	-0.003986	0.165771	-0.742920	0.491699	0.071350	0.980730	-0.181872	0.273785	0.156077	0.949042	0.959141	-0.117508	-0.257374
03880														-1.794329	9.369557	-2.559468	-0.018087	0.029487	-0.004331	0.165771	-0.747070	0.491943	0.071054	0.980777	-0.181737	0.273619	0.156043	0.949096	0.959210	-0.117164	-0.257272
03881														-1.796973	9.372911	-2.534616	-0.009920	0.023264	0.001936	0.165771	-0.742920	0.487305	0.070834	0.980827	-0.181554	0.273536	0.155934	0.949138	0.959250	-0.116893	-0.257246
03882														-1.808103	9.342933	-2.506833	-0.015554	0.028108	-0.002274	0.163574	-0.740723	0.489502	0.070557	0.980874	-0.181403	0.273393	0.155877	0.949188	0.959311	-0.116566	-0.257166
03883														-1.807868	9.394251	-2.537342	-0.013352	0.035752	0.001286	0.161865	-0.749023	0.487549	0.070218	0.980937	-0.181194	0.273275	0.155777	0.949239	0.959370	-0.116170	-0.257127
03884														-1.794578	9.373890	-2.532694	-0.009657	0.038908	-0.000172	0.167725	-0.744873	0.489502	0.069843	0.981001	-0.180995	0.273186	0.155693	0.949278	0.959422	-0.115746	-0.257122
03885														-1.761012	9.417069	-2.558328	-0.009361	0.042218	-0.001977	0.163818	-0.751221	0.483154	0.069435	0.981066	-0.180800	0.273105	0.155620	0.949313	0.959475	-0.115293	-0.257129
03886														-1.751655	9.450502	-2.561453	-0.004797	0.046603	-0.005132	0.163818	-0.749023	0.478760	0.068972	0.981130	-0.180629	0.273067	0.155578	0.949331	0.959519	-0.114801	-0.257184
03887														-1.714954	9.490411	-2.611945	0.002179	0.049714	-0.004487	0.161621	-0.747070	0.489746	0.068495	0.981199	-0.180436	0.273085	0.155513	0.949337	0.959548	-0.114299	-0.257299
03888														-1.731349	9.423541	-2.607281	0.008460	0.047855	-0.007312	0.159668	-0.744873	0.489502	0.068014	0.981261	-0.180281	0.273175	0.155478	0.949317	0.959557	-0.113815	-0.257482
03889														-1.701269	9.418223	-2.579048	0.000993	0.051893	-0.015210	0.159668	-0.744873	0.489502	0.067470	0.981316	-0.180183	0.273204	0.155521	0.949301	0.959587	-0.113276	-0.257607
03890														-1.706998	9.432549	-2.632478	0.005417	0.047687	-0.012887	0.157227	-0.738770	0.487305	0.066976	0.981369	-0.180082	0.273269	0.155544	0.949279	0.959603	-0.112789	-0.257760
03891														-1.729790	9.380119	-2.680316	0.010257	0.046682	-0.014116	0.161377	-0.740723	0.489502	0.066483	0.981420	-0.179986	0.273386	0.155565	0.949242	0.959604	-0.112314	-0.257964
03892														-1.705203	9.338291	-2.673555	0.011461	0.046047	-0.012209	0.163574	-0.742920	0.485107	0.066006	0.981471	-0.179883	0.273508	0.155575	0.949205	0.959602	-0.111852	-0.258172
03893														-1.696274	9.320154	-2.646971	0.008756	0.044011	-0.014197	0.157471	-0.744873	0.489502	0.065550	0.981517	-0.179800	0.273610	0.155602	0.949171	0.959604	-0.111413	-0.258354
03894														-1.726084	9.324685	-2.678099	0.008337	0.040810	-0.010640	0.159424	-0.740723	0.485107	0.065127	0.981564	-0.179695	0.273702	0.155600	0.949145	0.959607	-0.110998	-0.258522
03895														-1.741693	9.347938	-2.659870	0.008731	0.035311	-0.010466	0.159424	-0.742920	0.485107	0.064758	0.981607	-0.179594	0.273799	0.155587	0.949119	0.959604	-0.110636	-0.258687
03896														-1.712278	9.393516	-2.663043	0.011530	0.028540	-0.006493	0.159424	-0.742920	0.491699	0.064465	0.981647	-0.179481	0.273918	0.155541	0.949092	0.959590	-0.110346	-0.258864
03897														-1.757338	9.421664	-2.674899	0.018083	0.028455	-0.002281	0.157471	-0.742920	0.487305	0.064186	0.981694	-0.179322	0.274101	0.155439	0.949056	0.959557	-0.110069	-0.259106
03898														-1.727173	9.416213	-2.647305	0.015379	0.026417	-0.004275	0.159424	-0.740723	0.489502	0.063920	0.981735	-0.179194	0.274256	0.155366	0.949023	0.959530	-0.109806	-0.259316
03899														-1.751744	9.457021	-2.657692	0.011597	0.024904	-0.009917	0.155029	-0.734619	0.489258	0.063653	0.981767	-0.179115	0.274381	0.155346	0.948990	0.959512	-0.109552	-0.259490
03900														-1.760970	9.474138	-2.687573	0.012742	0.020742	-0.009698	0.161621	-0.744873	0.482910	0.063426	0.981793	-0.179053	0.274515	0.155330	0.948954	0.959489	-0.109341	-0.259664
03901														-1.743979	9.489247	-2.664095	0.018909	0.018994	-0.010766	0.159668	-0.744873	0.489502	0.063218	0.981816	-0.178999	0.274708	0.155310	0.948902	0.959447	-0.109160	-0.259894
03902														-1.789861	9.466154	-2.644939	0.019398	0.018556	-0.017743	0.161621	-0.742920	0.487305	0.062989	0.981827	-0.179019	0.274910	0.155366	0.948834	0.959404	-0.108981	-0.260128
03903														-1.775405	9.441530	-2.667109	0.027639	0.017403	-0.018602	0.157471	-0.744873	0.491699	0.062778	0.981836	-0.179045	0.275194	0.155415	0.948744	0.959337	-0.108832	-0.260438
03904														-1.752356	9.399248	-2.660952	0.021486	0.011984	-0.022644	0.155518	-0.744873	0.485107	0.062600	0.981832	-0.179128	0.275419	0.155516	0.948662	0.959284	-0.108721	-0.260680
03905														-1.801569	9.387362	-2.718151	0.022525	0.000764	-0.025790	0.155518	-0.747070	0.489502	0.062520	0.981813	-0.179260	0.275654	0.155637	0.948574	0.959222	-0.108719	-0.260910
03906														-1.801766	9.374997	-2.643447	0.012936	-0.006040	-0.021366	0.157471	-0.742920	0.491699	0.062518	0.981792	-0.179378	0.275797	0.155736	0.948516	0.959181	-0.108771	-0.261039
03907														-1.837027	9.382210	-2.650173	0.011888	-0.010687	-0.019606	0.157227	-0.736572	0.489502	0.062563	0.981770	-0.179480	0.275929	0.155808	0.948466	0.959140	-0.108863	-0.261151
03908														-1.836332	9.429341	-2.706456	0.012409	-0.016296	-0.021177	0.157471	-0.742920	0.487305	0.062660	0.981738	-0.179623	0.276066	0.155905	0.948410	0.959094	-0.109015	-0.261255
03909														-1.807606	9.463216	-2.632654	0.011730	-0.021274	-0.024648	0.157471	-0.742920	0.493896	0.062796	0.981696	-0.179804	0.276200	0.156029	0.948350	0.959046	-0.109215	-0.261346
03910														-1.817515	9.468597	-2.585227	0.008403	-0.024765	-0.028432	0.157227	-0.740723	0.491699	0.062954	0.981643	-0.180038	0.276303	0.156202	0.948292	0.959006	-0.109444	-0.261398
03911														-1.836792	9.491462	-2.566077	0.010268	-0.022419	-0.033564	0.161377	-0.740723	0.493896	0.063071	0.981586	-0.180306	0.276434	0.156415	0.948219	0.958961	-0.109648	-0.261479
03912														-1.835579	9.527014	-2.545562	0.006418	-0.020302	-0.035776	0.161377	-0.740723	0.489502	0.063165	0.981527	-0.180598	0.276523	0.156661	0.948152	0.958929	-0.109830	-0.261519
03913														-1.827169	9.505428	-2.542042	0.017949	-0.012782	-0.038251	0.157227	-0.738770	0.491699	0.063186	0.981472	-0.180890	0.276730	0.156914	0.948050	0.958868	-0.109961	-0.261688
03914														-1.827465	9.450311	-2.535943	0.014636	-0.007579	-0.045755	0.165527	-0.740723	0.496094	0.063130	0.981410	-0.181243	0.276904	0.157250	0.947943	0.958821	-0.110031	-0.261829
03915														-1.857749	9.399871	-2.559566	0.017174	-0.000253	-0.047415	0.163574	-0.744873	0.491699	0.063001	0.981354	-0.181589	0.277113	0.157594	0.947825	0.958770	-0.110035	-0.262018
03916														-1.849786	9.377970	-2.556829	0.017345	0.003168	-0.047473	0.163574	-0.740723	0.491699	0.062838	0.981302	-0.181930	0.277314	0.157944	0.947708	0.958722	-0.110004	-0.262204
03917														-1.833523	9.389394	-2.557271	0.017759	0.006367	-0.051015	0.163330	-0.738770	0.493896	0.062642	0.981247	-0.182293	0.277526	0.158322	0.947583	0.958674	-0.109950	-0.262403
03918														-1.821610	9.313474	-2.547378	0.022938	0.003517	-0.048632	0.163574	-0.742920	0.496094	0.062472	0.981192	-0.182644	0.277781	0.158677	0.947449	0.958611	-0.109924	-0.262644
03919														-1.846723	9.299285	-2.550596	0.016768	0.005250	-0.047562	0.163574	-0.742920	0.485107	0.062291	0.981142	-0.182978	0.277986	0.159023	0.947331	0.958563	-0.109876	-0.262838
03920														-1.839298	9.328297	-2.579209	0.014985	-0.000736	-0.045841	0.161621	-0.742920	0.496094	0.062170	0.981087	-0.183313	0.278163	0.159359	0.947222	0.958520	-0.109880	-0.262994
03921														-1.834913	9.360549	-2.583568	0.010686	0.005347	-0.039410	0.163818	-0.747070	0.489746	0.062014	0.981049	-0.183566	0.278295	0.159630	0.947138	0.958492	-0.109821	-0.263121
03922														-1.842827	9.413411	-2.592224	0.012091	0.000967	-0.042663	0.161621	-0.742920	0.485107	0.061885	0.981001	-0.183867	0.278442	0.159938	0.947043	0.958457	-0.109804	-0.263254
03923														-1.805531	9.438008	-2.590654	0.008357	0.002962	-0.046615	0.161377	-0.740723	0.493896	0.061735	0.980949	-0.184193	0.278549	0.160280	0.946954	0.958436	-0.109767	-0.263347
03924														-1.809894	9.436944	-2.591484	0.007318	0.007010	-0.048575	0.167480	-0.738770	0.493896	0.061532	0.980898	-0.184534	0.278654	0.160651	0.946860	0.958418	-0.109683	-0.263446
03925														-1.829535	9.408645	-2.541179	0.006818	0.005449	-0.052095	0.163574	-0.742920	0.493896	0.061337	0.980840	-0.184909	0.278763	0.161052	0.946759	0.958399	-0.109618	-0.263543
03926														-1.786816	9.336634	-2.600751	0.009420	0.009140	-0.057168	0.163330	-0.736572	0.491699	0.061089	0.980776	-0.185326	0.278893	0.161505	0.946644	0.958377	-0.109516	-0.263666
03927														-1.782689	9.318010	-2.573286	0.007104	0.008760	-0.053884	0.163574	-0.738770	0.487305	0.060857	0.980719	-0.185707	0.279003	0.161922	0.946540	0.958360	-0.109416	-0.263770
03928														-1.803630	9.250113	-2.567852	0.006437	0.014482	-0.050576	0.163574	-0.740723	0.493896	0.060576	0.980672	-0.186047	0.279101	0.162314	0.946444	0.958349	-0.109258	-0.263874
03929														-1.770300	9.187553	-2.555524	0.008385	0.015199	-0.048623	0.165527	-0.740723	0.487305	0.060298	0.980629	-0.186361	0.279216	0.162677	0.946348	0.958333	-0.109098	-0.263998
03930														-1.801183	9.179879	-2.509920	0.008604	0.015463	-0.032805	0.165527	-0.740723	0.489502	0.060058	0.980612	-0.186530	0.279323	0.162892	0.946279	0.958317	-0.108933	-0.264125
03931														-1.829709	9.180557	-2.564578	0.006076	0.018833	-0.024379	0.159424	-0.742920	0.491699	0.059819	0.980612	-0.186606	0.279398	0.163020	0.946235	0.958310	-0.108740	-0.264229
03932														-1.805823	9.229454	-2.543275	0.003793	0.021981	-0.019432	0.163574	-0.740723	0.496094	0.059553	0.980623	-0.186631	0.279451	0.163110	0.946204	0.958311	-0.108504	-0.264322
03933														-1.791363	9.346678	-2.581872	0.003457	0.025846	-0.012540	0.169922	-0.744873	0.493896	0.059267	0.980652	-0.186571	0.279498	0.163122	0.946188	0.958315	-0.108224	-0.264423
03934														-1.747927	9.419936	-2.635610	0.004076	0.027299	-0.010752	0.167725	-0.740723	0.496094	0.058974	0.980683	-0.186500	0.279549	0.163126	0.946172	0.958319	-0.107936	-0.264529
03935														-1.751982	9.422759	-2.612208	-0.001763	0.025147	-0.016586	0.163330	-0.738770	0.493896	0.058697	0.980702	-0.186490	0.279553	0.163190	0.946160	0.958334	-0.107671	-0.264579
03936														-1.743794	9.405156	-2.583996	-0.003676	0.027961	-0.016856	0.169434	-0.734619	0.485107	0.058381	0.980724	-0.186475	0.279533	0.163262	0.946154	0.958360	-0.107364	-0.264613
03937														-1.786380	9.379072	-2.586509	-0.008802	0.023620	-0.024317	0.165771	-0.742920	0.493896	0.058099	0.980728	-0.186541	0.279469	0.163408	0.946148	0.958395	-0.107102	-0.264589
03938														-1.805104	9.362808	-2.611574	-0.007004	0.033146	-0.024347	0.163574	-0.742920	0.493896	0.057712	0.980743	-0.186583	0.279421	0.163557	0.946136	0.958433	-0.106739	-0.264601
03939														-1.789539	9.288122	-2.599780	-0.001255	0.036935	-0.025568	0.167725	-0.740723	0.487305	0.057291	0.980760	-0.186621	0.279431	0.163705	0.946107	0.958455	-0.106352	-0.264676
03940														-1.840068	9.228310	-2.600282	0.005602	0.043743	-0.021475	0.169434	-0.736572	0.496094	0.056811	0.980790	-0.186608	0.279503	0.163812	0.946068	0.958463	-0.105905	-0.264827
03941														-1.817591	9.198023	-2.669304	0.010973	0.047867	-0.017477	0.159424	-0.740723	0.493896	0.056318	0.980830	-0.186548	0.279627	0.163871	0.946021	0.958456	-0.105442	-0.265037
03942														-1.829333	9.167024	-2.644434	0.016625	0.055302	-0.015276	0.169678	-0.742920	0.491699	0.055745	0.980883	-0.186445	0.279800	0.163907	0.945963	0.958439	-0.104900	-0.265314
03943														-1.791980	9.246278	-2.651592	0.011139	0.056831	-0.005372	0.165527	-0.740723	0.491699	0.055192	0.980953	-0.186240	0.279916	0.163844	0.945940	0.958437	-0.104340	-0.265542
03944														-1.755700	9.285984	-2.703284	0.012335	0.050668	-0.015615	0.167480	-0.736572	0.498291	0.054662	0.980999	-0.186153	0.280049	0.163887	0.945893	0.958428	-0.103836	-0.265769
03945														-1.747838	9.318827	-2.708246	0.008911	0.047264	-0.017657	0.165527	-0.740723	0.487305	0.054170	0.981038	-0.186094	0.280156	0.163950	0.945850	0.958425	-0.103372	-0.265962
03946														-1.736686	9.348739	-2.736423	-0.001590	0.040801	-0.018650	0.165527	-0.738770	0.491699	0.053725	0.981068	-0.186061	0.280157	0.164037	0.945835	0.958450	-0.102942	-0.266040
03947														-1.762402	9.389354	-2.746015	-0.002177	0.042880	-0.018756	0.163574	-0.742920	0.496094	0.053277	0.981100	-0.186022	0.280148	0.164121	0.945823	0.958477	-0.102505	-0.266110
03948														-1.780111	9.373048	-2.771726	-0.006773	0.043629	-0.021025	0.163574	-0.740723	0.491699	0.052799	0.981129	-0.186005	0.280100	0.164237	0.945817	0.958518	-0.102039	-0.266143
03949														-1.805202	9.362971	-2.749253	-0.008712	0.042910	-0.022970	0.165771	-0.742920	0.493896	0.052332	0.981155	-0.186003	0.280036	0.164367	0.945814	0.958562	-0.101584	-0.266157
03950														-1.762032	9.346044	-2.815310	-0.002484	0.036041	-0.018616	0.161133	-0.734619	0.493652	0.051933	0.981180	-0.185982	0.280028	0.164455	0.945801	0.958586	-0.101199	-0.266217
03951														-1.746502	9.361492	-2.791129	0.016107	0.028924	-0.032186	0.159180	-0.736572	0.493896	0.051574	0.981175	-0.186106	0.280209	0.164651	0.945713	0.958553	-0.100923	-0.266442
03952														-1.791648	9.286801	-2.741119	0.028413	0.033072	-0.011622	0.161621	-0.742920	0.496094	0.051224	0.981208	-0.186027	0.280493	0.164639	0.945631	0.958488	-0.100618	-0.266788
03953														-1.806525	9.168470	-2.705891	0.014500	0.032267	-0.000865	0.161377	-0.738770	0.496094	0.050914	0.981260	-0.185841	0.280641	0.164527	0.945606	0.958461	-0.100300	-0.267005
03954														-1.822676	9.191732	-2.687446	-0.005857	0.027463	-0.015289	0.163330	-0.738770	0.491699	0.050607	0.981281	-0.185812	0.280599	0.164586	0.945609	0.958490	-0.099994	-0.267017
03955														-1.783142	9.268348	-2.716157	-0.003221	0.022464	-0.016637	0.163330	-0.738770	0.493896	0.050354	0.981296	-0.185805	0.280585	0.164649	0.945602	0.958508	-0.099748	-0.267046
03956														-1.803084	9.294814	-2.673331	0.005961	0.017819	0.003778	0.161377	-0.736572	0.493896	0.050193	0.981339	-0.185621	0.280646	0.164509	0.945608	0.958498	-0.099556	-0.267152
03957														-1.839924	9.265406	-2.701673	0.019071	0.015761	0.001776	0.163574	-0.740723	0.493896	0.050055	0.981376	-0.185458	0.280837	0.164369	0.945576	0.958449	-0.099414	-0.267379
03958														-1.884258	9.332441	-2.669533	0.018656	0.012562	0.005309	0.163330	-0.738770	0.498291	0.049949	0.981417	-0.185274	0.281019	0.164201	0.945551	0.958401	-0.099295	-0.267595
03959														-1.833864	9.391539	-2.671752	0.019152	0.017664	0.010515	0.157227	-0.736572	0.489502	0.049819	0.981470	-0.185025	0.281209	0.163976	0.945533	0.958353	-0.099136	-0.267829
03960														-1.872902	9.404887	-2.632000	0.017236	0.020475	0.010241	0.161377	-0.738770	0.498291	0.049650	0.981526	-0.184773	0.281375	0.163762	0.945521	0.958313	-0.098936	-0.268046
03961														-1.864351	9.488788	-2.668667	0.014844	0.021719	0.006440	0.163330	-0.738770	0.496094	0.049465	0.981578	-0.184547	0.281521	0.163578	0.945509	0.958279	-0.098724	-0.268244
03962														-1.846347	9.504544	-2.645338	0.019986	0.024061	0.003458	0.165527	-0.738770	0.498291	0.049244	0.981626	-0.184349	0.281717	0.163428	0.945477	0.958233	-0.098493	-0.268493
03963														-1.875321	9.508282	-2.677684	0.020496	0.020078	-0.005163	0.157227	-0.736572	0.491699	0.049050	0.981656	-0.184244	0.281929	0.163358	0.945426	0.958181	-0.098317	-0.268745
03964														-1.895581	9.443898	-2.649490	0.014802	0.014262	-0.014441	0.161377	-0.738770	0.491699	0.048872	0.981665	-0.184242	0.282084	0.163388	0.945375	0.958144	-0.098174	-0.268927
03965														-1.904690	9.409799	-2.647972	0.013606	0.014884	-0.016341	0.159424	-0.738770	0.496094	0.048693	0.981672	-0.184250	0.282225	0.163430	0.945325	0.958112	-0.098030	-0.269095
03966														-1.930767	9.359560	-2.671751	0.012278	0.015617	-0.016505	0.163330	-0.738770	0.498291	0.048496	0.981680	-0.184264	0.282357	0.163482	0.945277	0.958083	-0.097870	-0.269256
03967														-1.919427	9.338507	-2.668479	0.010343	0.014894	-0.018459	0.161377	-0.738770	0.498291	0.048309	0.981683	-0.184295	0.282476	0.163551	0.945229	0.958057	-0.097722	-0.269401
03968														-1.891632	9.293905	-2.684622	0.013776	0.021842	-0.014718	0.163330	-0.738770	0.498291	0.048057	0.981699	-0.184275	0.282621	0.163585	0.945180	0.958027	-0.097503	-0.269588
03969														-1.888355	9.329835	-2.665360	0.011084	0.016239	-0.018401	0.161377	-0.740723	0.496094	0.047859	0.981703	-0.184303	0.282749	0.163653	0.945130	0.957999	-0.097344	-0.269743
03970														-1.876898	9.308823	-2.662051	0.010817	0.016465	-0.014928	0.155273	-0.738770	0.489502	0.047658	0.981714	-0.184300	0.282866	0.163692	0.945088	0.957975	-0.097173	-0.269892
03971														-1.866379	9.338555	-2.690216	0.007387	0.009515	-0.018666	0.159180	-0.734619	0.498047	0.047522	0.981712	-0.184343	0.282947	0.163762	0.945052	0.957958	-0.097070	-0.269990
03972														-1.834742	9.330632	-2.684962	0.008565	0.005361	-0.018438	0.161377	-0.738770	0.498291	0.047418	0.981706	-0.184402	0.283044	0.163837	0.945010	0.957934	-0.097004	-0.270097
03973														-1.828646	9.363519	-2.688732	0.003353	0.001107	-0.024192	0.163330	-0.736572	0.500488	0.047344	0.981687	-0.184524	0.283100	0.163969	0.944970	0.957921	-0.096978	-0.270152
03974														-1.817777	9.382373	-2.639574	-0.000043	0.001227	-0.024577	0.163330	-0.738770	0.500488	0.047263	0.981667	-0.184653	0.283117	0.164114	0.944940	0.957920	-0.096939	-0.270170
03975														-1.828074	9.348486	-2.636399	-0.000192	-0.002195	-0.024516	0.163574	-0.742920	0.496094	0.047223	0.981643	-0.184791	0.283143	0.164254	0.944908	0.957915	-0.096943	-0.270188
03976														-1.801174	9.343899	-2.606001	-0.007615	0.005281	-0.030780	0.163330	-0.738770	0.498291	0.047085	0.981616	-0.184967	0.283091	0.164467	0.944886	0.957937	-0.096852	-0.270142
03977														-1.808808	9.357607	-2.658161	-0.002271	0.009425	-0.026759	0.161377	-0.738770	0.498291	0.046931	0.981600	-0.185093	0.283090	0.164630	0.944858	0.957945	-0.096741	-0.270155
03978														-1.798425	9.336825	-2.653407	-0.004190	0.012234	-0.027037	0.163086	-0.730469	0.495850	0.046737	0.981586	-0.185215	0.283069	0.164802	0.944835	0.957960	-0.096587	-0.270154
03979														-1.787974	9.315990	-2.648902	0.002603	0.012000	-0.026259	0.161377	-0.738770	0.498291	0.046557	0.981573	-0.185330	0.283118	0.164957	0.944793	0.957954	-0.096457	-0.270221
03980														-1.798053	9.282070	-2.645944	-0.003452	0.013580	-0.026978	0.161133	-0.734619	0.498047	0.046350	0.981560	-0.185447	0.283104	0.165128	0.944767	0.957969	-0.096291	-0.270230
03981														-1.804217	9.245085	-2.666741	-0.001062	0.012343	-0.023173	0.161133	-0.734619	0.500244	0.046173	0.981553	-0.185530	0.283116	0.165254	0.944741	0.957973	-0.096148	-0.270264
03982														-1.809696	9.247897	-2.642777	-0.005185	0.014649	-0.021937	0.161377	-0.736572	0.500488	0.045970	0.981550	-0.185597	0.283083	0.165377	0.944730	0.957993	-0.095968	-0.270258
03983														-1.783276	9.254431	-2.688997	-0.002526	0.013188	-0.021602	0.163574	-0.740723	0.498291	0.045786	0.981546	-0.185663	0.283085	0.165490	0.944709	0.958001	-0.095813	-0.270284
03984														-1.792709	9.220634	-2.686001	0.000143	0.015262	-0.019590	0.163330	-0.734619	0.498047	0.045584	0.981547	-0.185706	0.283102	0.165585	0.944688	0.958006	-0.095636	-0.270330
03985														-1.810816	9.204120	-2.711510	-0.004718	0.016220	-0.018410	0.159424	-0.740723	0.496094	0.045387	0.981551	-0.185736	0.283077	0.165670	0.944680	0.958023	-0.095454	-0.270335
03986														-1.812677	9.254732	-2.742905	-0.008197	0.014821	-0.010014	0.159180	-0.734619	0.500244	0.045216	0.981567	-0.185690	0.283009	0.165679	0.944699	0.958051	-0.095268	-0.270302
03987														-1.795342	9.220246	-2.685572	-0.001540	0.014703	-0.007501	0.163330	-0.738770	0.500488	0.045058	0.981589	-0.185615	0.283009	0.165650	0.944704	0.958058	-0.095097	-0.270334
03988														-1.808121	9.240546	-2.690343	-0.001811	0.014928	-0.004032	0.163330	-0.734619	0.500244	0.044903	0.981615	-0.185513	0.283000	0.165594	0.944717	0.958068	-0.094920	-0.270361
03989														-1.795284	9.220199	-2.685774	-0.002082	0.015153	-0.000563	0.159180	-0.736572	0.493896	0.044765	0.981647	-0.185377	0.282996	0.165501	0.944734	0.958076	-0.094752	-0.270394
03990														-1.779143	9.287144	-2.692216	0.000577	0.013692	-0.000228	0.165283	-0.734619	0.493896	0.044632	0.981679	-0.185242	0.283008	0.165406	0.944747	0.958078	-0.094591	-0.270441
03991														-1.803853	9.327863	-2.701916	0.001186	0.018686	0.003239	0.159424	-0.740723	0.496094	0.044476	0.981720	-0.185060	0.283025	0.165272	0.944766	0.958081	-0.094396	-0.270501
03992														-1.811975	9.345119	-2.730896	-0.000007	0.019304	0.001338	0.161377	-0.736572	0.496094	0.044295	0.981760	-0.184895	0.283031	0.165161	0.944783	0.958087	-0.094180	-0.270553
03993														-1.803510	9.378502	-2.734676	0.005872	0.023004	-0.001572	0.159180	-0.736572	0.498291	0.044079	0.981798	-0.184743	0.283095	0.165068	0.944780	0.958078	-0.093945	-0.270666
03994														-1.770284	9.371060	-2.729149	0.001404	0.016554	-0.008952	0.163330	-0.738770	0.496094	0.043895	0.981817	-0.184683	0.283119	0.165057	0.944775	0.958080	-0.093758	-0.270726
03995														-1.840972	9.348786	-2.762822	0.001723	0.014702	-0.005371	0.161377	-0.736572	0.489502	0.043749	0.981841	-0.184592	0.283148	0.165007	0.944775	0.958078	-0.093600	-0.270787
03996														-1.815911	9.307987	-2.753618	-0.002698	0.006624	-0.005706	0.159424	-0.740723	0.502686	0.043669	0.981857	-0.184527	0.283131	0.164968	0.944787	0.958086	-0.093503	-0.270790
03997														-1.828948	9.328315	-2.758127	-0.002842	0.003201	-0.005649	0.161133	-0.732422	0.493652	0.043633	0.981869	-0.184469	0.283114	0.164923	0.944800	0.958093	-0.093450	-0.270785
03998														-1.845148	9.261400	-2.751538	-0.005189	-0.000726	-0.004083	0.159180	-0.734619	0.495850	0.043628	0.981881	-0.184409	0.283073	0.164871	0.944821	0.958106	-0.093422	-0.270750
03999														-1.837636	9.294927	-2.754207	-0.004452	0.000620	-0.004027	0.159180	-0.734619	0.493652	0.043622	0.981893	-0.184344	0.283041	0.164813	0.944841	0.958115	-0.093393	-0.270726
04000														-1.833016	9.280928	-2.701077	-0.007679	-0.008077	-0.002461	0.156982	-0.732422	0.500244	0.043692	0.981901	-0.184289	0.282975	0.164748	0.944872	0.958132	-0.093432	-0.270655
04001														-1.821831	9.311394	-2.727349	-0.005476	-0.007573	-0.003971	0.159180	-0.732422	0.493652	0.043758	0.981906	-0.184243	0.282936	0.164689	0.944894	0.958140	-0.093476	-0.270610
04002														-1.802787	9.375344	-2.756684	-0.008416	-0.009423	-0.002516	0.161133	-0.734619	0.495850	0.043841	0.981912	-0.184192	0.282863	0.164624	0.944927	0.958158	-0.093527	-0.270530
04003														-1.810999	9.381742	-2.707913	-0.007686	-0.011612	-0.004138	0.159424	-0.740723	0.498291	0.043951	0.981913	-0.184161	0.282801	0.164571	0.944955	0.958171	-0.093613	-0.270453
04004														-1.804044	9.415317	-2.710041	-0.009200	-0.009140	-0.009617	0.159180	-0.734619	0.498047	0.044011	0.981907	-0.184176	0.282724	0.164577	0.944977	0.958191	-0.093661	-0.270365
04005														-1.797530	9.448833	-2.712089	-0.009070	-0.012787	-0.013028	0.159180	-0.736572	0.500488	0.044104	0.981893	-0.184230	0.282654	0.164611	0.944992	0.958207	-0.093751	-0.270276
04006														-1.822597	9.387987	-2.657325	-0.002320	-0.007849	-0.017616	0.163330	-0.738770	0.496094	0.044128	0.981876	-0.184318	0.282646	0.164689	0.944981	0.958209	-0.093797	-0.270256
04007														-1.840289	9.320801	-2.650603	-0.005579	-0.007847	-0.019738	0.157227	-0.736572	0.496094	0.044157	0.981854	-0.184424	0.282614	0.164787	0.944973	0.958217	-0.093848	-0.270209
04008														-1.879153	9.291274	-2.677060	-0.005103	0.000792	-0.012858	0.157227	-0.736572	0.498291	0.044113	0.981853	-0.184443	0.282578	0.164821	0.944978	0.958230	-0.093805	-0.270179
04009														-1.888386	9.257673	-2.673417	-0.006303	-0.002124	-0.016436	0.159424	-0.738770	0.500488	0.044090	0.981844	-0.184498	0.282535	0.164884	0.944980	0.958243	-0.093791	-0.270135
04010														-1.856410	9.250273	-2.667017	0.001695	0.004102	-0.010400	0.157227	-0.736572	0.491699	0.044020	0.981849	-0.184484	0.282562	0.164887	0.944971	0.958238	-0.093726	-0.270175
04011														-1.858026	9.300836	-2.698813	0.000272	-0.000223	-0.003467	0.159180	-0.736572	0.500488	0.044019	0.981863	-0.184412	0.282575	0.164817	0.944980	0.958235	-0.093707	-0.270194
04012														-1.804906	9.306759	-2.690687	-0.007125	-0.004991	-0.007713	0.159424	-0.738770	0.491699	0.044044	0.981864	-0.184398	0.282516	0.164802	0.945000	0.958251	-0.093717	-0.270134
04013														-1.827329	9.344491	-2.722802	-0.013601	-0.010154	-0.006591	0.159180	-0.736572	0.498291	0.044130	0.981863	-0.184384	0.282398	0.164777	0.945040	0.958282	-0.093775	-0.270004
04014														-1.794945	9.337558	-2.715142	-0.013737	-0.010043	-0.004856	0.159180	-0.734619	0.495850	0.044212	0.981864	-0.184357	0.282275	0.164740	0.945083	0.958314	-0.093823	-0.269872
04015														-1.816605	9.324564	-2.715424	-0.009066	-0.012786	-0.013023	0.161377	-0.736572	0.496094	0.044304	0.981850	-0.184411	0.282206	0.164774	0.945098	0.958330	-0.093914	-0.269783
04016														-1.821766	9.327724	-2.690352	-0.011263	-0.009759	-0.009832	0.159180	-0.732422	0.491455	0.044369	0.981844	-0.184430	0.282109	0.164784	0.945125	0.958356	-0.093964	-0.269675
04017														-1.805474	9.253609	-2.676987	-0.006400	-0.010710	-0.011010	0.157471	-0.742920	0.493896	0.044451	0.981834	-0.184462	0.282061	0.164797	0.945137	0.958366	-0.094042	-0.269611
04018														-1.842442	9.213189	-2.626755	-0.008138	-0.009649	-0.005976	0.163330	-0.736572	0.498291	0.044526	0.981834	-0.184444	0.281992	0.164766	0.945163	0.958383	-0.094096	-0.269533
04019														-1.839318	9.210214	-2.649828	-0.007397	-0.004768	-0.004242	0.155029	-0.734619	0.495850	0.044569	0.981841	-0.184394	0.281931	0.164713	0.945190	0.958399	-0.094112	-0.269471
04020														-1.856919	9.284557	-2.661507	-0.005869	-0.000174	0.004591	0.161377	-0.738770	0.496094	0.044583	0.981868	-0.184250	0.281880	0.164576	0.945229	0.958413	-0.094077	-0.269431
04021														-1.809949	9.296890	-2.605775	0.001852	0.002738	0.012410	0.155029	-0.734619	0.493652	0.044596	0.981910	-0.184021	0.281902	0.164349	0.945262	0.958406	-0.094031	-0.269473
04022														-1.864031	9.392740	-2.676876	-0.001482	0.008284	0.022423	0.165283	-0.732422	0.491455	0.044579	0.981974	-0.183686	0.281884	0.164033	0.945322	0.958412	-0.093920	-0.269490
04023														-1.817117	9.455873	-2.653200	0.004654	0.004702	0.012688	0.159424	-0.742920	0.498291	0.044582	0.982017	-0.183453	0.281931	0.163804	0.945348	0.958398	-0.093866	-0.269558
04024														-1.800665	9.483306	-2.704399	-0.000401	0.003866	0.006879	0.161377	-0.736572	0.498291	0.044563	0.982051	-0.183277	0.281931	0.163639	0.945377	0.958399	-0.093801	-0.269578
04025														-1.820545	9.510019	-2.660736	-0.009136	-0.003704	0.000791	0.159180	-0.734619	0.498047	0.044609	0.982067	-0.183178	0.281855	0.163539	0.945417	0.958419	-0.093804	-0.269505
04026														-1.842322	9.547837	-2.693021	-0.009181	0.001463	-0.004574	0.157227	-0.734619	0.491455	0.044582	0.982080	-0.183117	0.281776	0.163495	0.945448	0.958444	-0.093748	-0.269437
04027														-1.841863	9.497138	-2.660825	-0.003906	0.003713	-0.009275	0.161377	-0.738770	0.493896	0.044527	0.982087	-0.183092	0.281752	0.163488	0.945456	0.958453	-0.093685	-0.269426
04028														-1.850672	9.463505	-2.657610	-0.001291	0.007422	-0.014307	0.161377	-0.738770	0.487305	0.044415	0.982089	-0.183107	0.281753	0.163533	0.945448	0.958458	-0.093583	-0.269443
04029														-1.867852	9.356577	-2.696467	0.002518	0.010512	-0.017440	0.161377	-0.740723	0.498291	0.044282	0.982088	-0.183143	0.281787	0.163601	0.945426	0.958455	-0.093473	-0.269495
04030														-1.881086	9.286106	-2.714743	0.004443	0.007707	-0.017162	0.161377	-0.736572	0.496094	0.044159	0.982086	-0.183184	0.281843	0.163668	0.945398	0.958444	-0.093378	-0.269567
04031														-1.874426	9.279591	-2.763152	0.003903	0.011682	-0.008550	0.155029	-0.734619	0.500244	0.044034	0.982101	-0.183134	0.281896	0.163649	0.945385	0.958434	-0.093254	-0.269645
04032														-1.825288	9.288254	-2.732252	0.009493	0.005011	-0.013030	0.161377	-0.736572	0.496094	0.043949	0.982103	-0.183144	0.282000	0.163671	0.945351	0.958407	-0.093194	-0.269760
04033														-1.851194	9.237987	-2.755562	0.009026	-0.000091	-0.018230	0.158936	-0.730469	0.491455	0.043903	0.982092	-0.183214	0.282108	0.163740	0.945306	0.958377	-0.093188	-0.269868
04034														-1.820711	9.281052	-2.781589	0.005078	-0.006605	-0.015043	0.161377	-0.738770	0.491699	0.043923	0.982080	-0.183273	0.282170	0.163786	0.945280	0.958358	-0.093234	-0.269920
04035														-1.822335	9.280729	-2.781601	-0.000800	-0.013849	-0.013811	0.155029	-0.736572	0.493896	0.044030	0.982063	-0.183341	0.282174	0.163822	0.945272	0.958352	-0.093355	-0.269900
04036														-1.779171	9.303751	-2.802098	0.000255	-0.017890	-0.011856	0.157227	-0.738770	0.496094	0.044168	0.982045	-0.183401	0.282189	0.163841	0.945265	0.958342	-0.093504	-0.269886
04037														-1.797422	9.326919	-2.782492	0.000848	-0.023499	-0.013422	0.165527	-0.740723	0.493896	0.044358	0.982021	-0.183485	0.282209	0.163868	0.945254	0.958327	-0.093711	-0.269867
04038														-1.773709	9.286043	-2.772893	0.001633	-0.027319	-0.008000	0.161377	-0.736572	0.493896	0.044597	0.982001	-0.183534	0.282235	0.163848	0.945250	0.958308	-0.093955	-0.269848
04039														-1.803523	9.278912	-2.725867	-0.005763	-0.032090	-0.012237	0.159180	-0.732422	0.500244	0.044887	0.981968	-0.183639	0.282192	0.163875	0.945258	0.958307	-0.094251	-0.269748
04040														-1.784645	9.331757	-2.678292	-0.009429	-0.031759	-0.009155	0.159180	-0.736572	0.496094	0.045165	0.981942	-0.183711	0.282113	0.163876	0.945281	0.958318	-0.094521	-0.269617
04041														-1.769787	9.348000	-2.651625	-0.003836	-0.034893	-0.011955	0.163330	-0.736572	0.493896	0.045470	0.981908	-0.183816	0.282097	0.163896	0.945283	0.958308	-0.094836	-0.269541
04042														-1.767916	9.344761	-2.674867	0.001630	-0.030849	-0.009670	0.156982	-0.734619	0.498047	0.045738	0.981882	-0.183890	0.282123	0.163893	0.945275	0.958287	-0.095114	-0.269516
04043														-1.805273	9.304051	-2.625016	0.000303	-0.026587	-0.008156	0.159180	-0.736572	0.496094	0.045977	0.981862	-0.183938	0.282141	0.163872	0.945274	0.958270	-0.095357	-0.269490
04044														-1.769718	9.293714	-2.642307	-0.002222	-0.021708	-0.008541	0.159180	-0.732422	0.489258	0.046160	0.981846	-0.183976	0.282131	0.163860	0.945279	0.958265	-0.095540	-0.269445
04045														-1.795359	9.283461	-2.619445	0.000712	-0.019851	-0.009999	0.167725	-0.740723	0.493896	0.046331	0.981830	-0.184022	0.282149	0.163856	0.945274	0.958251	-0.095717	-0.269431
04046														-1.815853	9.219321	-2.589224	0.004576	-0.018391	-0.006096	0.157227	-0.736572	0.498291	0.046489	0.981821	-0.184028	0.282202	0.163814	0.945266	0.958228	-0.095878	-0.269456
04047														-1.837052	9.206023	-2.590624	0.000047	-0.015766	0.000341	0.156982	-0.734619	0.493652	0.046653	0.981825	-0.183968	0.282212	0.163711	0.945280	0.958217	-0.096018	-0.269445
04048														-1.878149	9.179677	-2.593441	0.000789	-0.007353	0.003745	0.163574	-0.740723	0.491699	0.046733	0.981842	-0.183852	0.282225	0.163576	0.945300	0.958209	-0.096064	-0.269456
04049														-1.841719	9.260006	-2.597949	-0.002870	-0.003491	0.008502	0.161377	-0.738770	0.496094	0.046801	0.981872	-0.183678	0.282198	0.163393	0.945340	0.958214	-0.096076	-0.269435
04050														-1.846160	9.314019	-2.605321	-0.002604	-0.003711	0.005037	0.163330	-0.736572	0.493896	0.046850	0.981895	-0.183540	0.282177	0.163249	0.945371	0.958218	-0.096081	-0.269420
04051														-1.830177	9.381245	-2.611035	-0.006731	-0.001417	0.006276	0.165527	-0.736572	0.498291	0.046893	0.981922	-0.183386	0.282118	0.163095	0.945415	0.958233	-0.096070	-0.269370
04052														-1.851185	9.419094	-2.643639	-0.003600	-0.001305	0.010124	0.159424	-0.738770	0.493896	0.046933	0.981956	-0.183193	0.282086	0.162902	0.945458	0.958241	-0.096050	-0.269350
04053														-1.805881	9.442605	-2.664184	-0.004398	-0.001018	0.003029	0.155273	-0.740723	0.496094	0.046963	0.981978	-0.183069	0.282053	0.162777	0.945489	0.958249	-0.096038	-0.269325
04054														-1.851812	9.470162	-2.674541	-0.001932	-0.000729	-0.001951	0.161377	-0.738770	0.498291	0.046964	0.981993	-0.182989	0.282042	0.162701	0.945506	0.958252	-0.096015	-0.269322
04055														-1.819080	9.463002	-2.668184	-0.003001	-0.003754	-0.007255	0.161133	-0.734619	0.495850	0.046983	0.981997	-0.182963	0.282026	0.162672	0.945515	0.958256	-0.096024	-0.269306
04056														-1.848246	9.416286	-2.666088	-0.005668	-0.005830	-0.009259	0.161133	-0.732422	0.498047	0.047013	0.981995	-0.182965	0.281983	0.162671	0.945528	0.958267	-0.096045	-0.269258
04057														-1.886641	9.386870	-2.692158	-0.010263	-0.005103	-0.011538	0.159180	-0.734619	0.495850	0.047037	0.981989	-0.182990	0.281905	0.162696	0.945547	0.958289	-0.096062	-0.269175
04058														-1.871612	9.363529	-2.710367	-0.011465	-0.008017	-0.015109	0.159424	-0.740723	0.493896	0.047071	0.981975	-0.183054	0.281808	0.162758	0.945565	0.958315	-0.096095	-0.269068
04059														-1.869468	9.360505	-2.733082	-0.011001	-0.009983	-0.013265	0.159424	-0.738770	0.489502	0.047136	0.981963	-0.183104	0.281718	0.162797	0.945586	0.958339	-0.096155	-0.268963
04060														-1.825154	9.333081	-2.721256	-0.009077	-0.016318	-0.014664	0.161133	-0.734619	0.491455	0.047250	0.981942	-0.183186	0.281644	0.162853	0.945598	0.958355	-0.096273	-0.268863
04061														-1.863870	9.343289	-2.702080	-0.012009	-0.018175	-0.013201	0.159424	-0.742920	0.496094	0.047399	0.981921	-0.183258	0.281538	0.162893	0.945623	0.958379	-0.096416	-0.268727
04062														-1.867363	9.354470	-2.777074	-0.009350	-0.023162	-0.014547	0.157227	-0.738770	0.496094	0.047579	0.981894	-0.183358	0.281462	0.162948	0.945636	0.958392	-0.096601	-0.268613
04063														-1.823208	9.366652	-2.720236	-0.010821	-0.029388	-0.016326	0.163330	-0.736572	0.496094	0.047818	0.981859	-0.183486	0.281374	0.163016	0.945650	0.958406	-0.096848	-0.268474
04064														-1.837034	9.336149	-2.691732	-0.009357	-0.030224	-0.017891	0.165527	-0.736572	0.491699	0.048057	0.981819	-0.183635	0.281299	0.163103	0.945658	0.958416	-0.097102	-0.268347
04065														-1.828091	9.366637	-2.717006	-0.015685	-0.031975	-0.016803	0.159424	-0.740723	0.491699	0.048330	0.981778	-0.183784	0.281167	0.163186	0.945682	0.958441	-0.097379	-0.268157
04066														-1.834260	9.369709	-2.691275	-0.010090	-0.031570	-0.017937	0.159180	-0.736572	0.496094	0.048582	0.981736	-0.183938	0.281086	0.163275	0.945691	0.958452	-0.097646	-0.268020
04067														-1.833043	9.366741	-2.713308	-0.018947	-0.028445	-0.017229	0.163086	-0.732422	0.493652	0.048811	0.981700	-0.184073	0.280919	0.163360	0.945726	0.958489	-0.097871	-0.267805
04068														-1.831732	9.403418	-2.690151	-0.018421	-0.028878	-0.024152	0.161621	-0.742920	0.496094	0.049019	0.981651	-0.184279	0.280761	0.163518	0.945746	0.958525	-0.098098	-0.267594
04069														-1.842372	9.369859	-2.685205	-0.009826	-0.031783	-0.021392	0.161377	-0.740723	0.491699	0.049272	0.981603	-0.184466	0.280688	0.163638	0.945747	0.958533	-0.098376	-0.267462
04070														-1.843667	9.318891	-2.652381	-0.005227	-0.032507	-0.019119	0.163330	-0.738770	0.496094	0.049529	0.981559	-0.184633	0.280654	0.163734	0.945740	0.958530	-0.098659	-0.267369
04071														-1.850230	9.282155	-2.672169	-0.005957	-0.030323	-0.017493	0.167480	-0.738770	0.498291	0.049778	0.981519	-0.184778	0.280613	0.163811	0.945739	0.958529	-0.098928	-0.267273
04072														-1.865363	9.341863	-2.630472	-0.011029	-0.031163	-0.023271	0.163330	-0.738770	0.491699	0.050011	0.981469	-0.184981	0.280525	0.163953	0.945740	0.958543	-0.099189	-0.267127
04073														-1.844131	9.312472	-2.696265	-0.012014	-0.021703	-0.014836	0.159180	-0.734619	0.493652	0.050188	0.981441	-0.185082	0.280429	0.164013	0.945759	0.958562	-0.099368	-0.266993
04074														-1.837104	9.295153	-2.666484	-0.007156	-0.026172	-0.017704	0.165527	-0.736572	0.493896	0.050388	0.981404	-0.185219	0.280376	0.164097	0.945760	0.958567	-0.099586	-0.266893
04075														-1.815205	9.305270	-2.687910	-0.006082	-0.026682	-0.014078	0.161377	-0.740723	0.491699	0.050611	0.981374	-0.185323	0.280336	0.164141	0.945764	0.958567	-0.099818	-0.266807
04076														-1.865262	9.284670	-2.641993	-0.002082	-0.025330	-0.011921	0.165527	-0.738770	0.496094	0.050819	0.981348	-0.185403	0.280328	0.164163	0.945763	0.958558	-0.100036	-0.266757
04077														-1.866880	9.284452	-2.641618	0.003384	-0.021282	-0.009664	0.167480	-0.736572	0.496094	0.051003	0.981329	-0.185450	0.280374	0.164154	0.945750	0.958535	-0.100232	-0.266767
04078														-1.838931	9.240666	-2.656425	0.001061	-0.021689	-0.006411	0.167480	-0.736572	0.489502	0.051192	0.981316	-0.185468	0.280394	0.164119	0.945751	0.958519	-0.100419	-0.266753
04079														-1.869856	9.244607	-2.685699	-0.005475	-0.018166	-0.008942	0.161377	-0.736572	0.496094	0.051355	0.981300	-0.185506	0.280357	0.164116	0.945762	0.958521	-0.100578	-0.266686
04080														-1.861697	9.227316	-2.656571	-0.001862	-0.020021	-0.003267	0.163574	-0.740723	0.498291	0.051537	0.981294	-0.185490	0.280346	0.164053	0.945776	0.958514	-0.100744	-0.266647
04081														-1.870963	9.284214	-2.639564	-0.003579	-0.015443	0.003440	0.167480	-0.738770	0.496094	0.051697	0.981303	-0.185397	0.280325	0.163922	0.945805	0.958512	-0.100866	-0.266609
04082														-1.871140	9.284307	-2.639113	0.000549	-0.017728	0.002189	0.165527	-0.736572	0.493896	0.051872	0.981308	-0.185323	0.280335	0.163803	0.945823	0.958500	-0.101014	-0.266598
04083														-1.814029	9.287599	-2.655383	-0.002377	-0.019590	0.003661	0.161377	-0.736572	0.502686	0.052080	0.981312	-0.185244	0.280323	0.163672	0.945849	0.958492	-0.101188	-0.266560
04084														-1.863791	9.318051	-2.641248	-0.001041	-0.016786	0.005494	0.161133	-0.734619	0.493652	0.052256	0.981322	-0.185137	0.280316	0.163522	0.945877	0.958484	-0.101324	-0.266536
04085														-1.835537	9.364956	-2.642614	0.000897	-0.016056	0.007435	0.167725	-0.740723	0.491699	0.052429	0.981338	-0.185006	0.280339	0.163348	0.945900	0.958468	-0.101457	-0.266543
04086														-1.855684	9.351857	-2.643692	-0.000696	-0.018644	0.009068	0.163330	-0.736572	0.491699	0.052633	0.981353	-0.184870	0.280333	0.163162	0.945934	0.958459	-0.101612	-0.266518
04087														-1.814413	9.378432	-2.640874	0.006360	-0.015539	0.008014	0.161377	-0.738770	0.496094	0.052815	0.981368	-0.184737	0.280397	0.162979	0.945947	0.958430	-0.101760	-0.266565
04088														-1.838418	9.368207	-2.618264	-0.000185	-0.019074	0.002145	0.161621	-0.742920	0.491699	0.053003	0.981371	-0.184668	0.280400	0.162861	0.945966	0.958419	-0.101920	-0.266544
04089														-1.851209	9.388673	-2.622104	-0.006027	-0.015739	0.008434	0.167480	-0.738770	0.491699	0.053181	0.981388	-0.184526	0.280345	0.162683	0.946013	0.958425	-0.102041	-0.266476
04090														-1.854531	9.391934	-2.597393	-0.003707	-0.015333	0.005181	0.169434	-0.734619	0.493896	0.053342	0.981400	-0.184417	0.280313	0.162538	0.946048	0.958426	-0.102158	-0.266429
04091														-1.851197	9.389126	-2.620490	-0.008189	-0.018246	-0.000479	0.167725	-0.742920	0.496094	0.053530	0.981397	-0.184378	0.280246	0.162457	0.946081	0.958434	-0.102315	-0.266336
04092														-1.879757	9.342586	-2.617626	-0.009048	-0.019486	0.001205	0.167480	-0.736572	0.498291	0.053719	0.981398	-0.184318	0.280164	0.162357	0.946123	0.958448	-0.102465	-0.266231
04093														-1.883424	9.345923	-2.592367	-0.011362	-0.016363	0.006132	0.163574	-0.742920	0.493896	0.053904	0.981408	-0.184209	0.280068	0.162213	0.946176	0.958466	-0.102593	-0.266117
04094														-1.896296	9.366528	-2.595640	-0.007452	-0.013369	0.001244	0.165527	-0.738770	0.496094	0.054034	0.981415	-0.184132	0.280002	0.162111	0.946213	0.958478	-0.102685	-0.266038
04095														-1.863023	9.359710	-2.588982	-0.006240	-0.010459	0.004805	0.165527	-0.738770	0.496094	0.054155	0.981430	-0.184015	0.279950	0.161972	0.946252	0.958486	-0.102759	-0.265980
04096														-1.859622	9.356884	-2.612240	-0.005001	-0.009540	-0.002073	0.167480	-0.738770	0.493896	0.054240	0.981436	-0.183960	0.279909	0.161900	0.946277	0.958493	-0.102818	-0.265931
04097														-1.859853	9.357057	-2.611456	-0.009121	-0.003725	0.000855	0.165527	-0.736572	0.493896	0.054287	0.981451	-0.183866	0.279834	0.161805	0.946315	0.958512	-0.102825	-0.265859
04098														-1.828489	9.401005	-2.636332	-0.006076	-0.005499	-0.004023	0.165527	-0.736572	0.493896	0.054328	0.981458	-0.183819	0.279784	0.161754	0.946339	0.958525	-0.102842	-0.265808
04099														-1.855321	9.303484	-2.602595	-0.004737	-0.002697	-0.002194	0.165527	-0.738770	0.493896	0.054357	0.981469	-0.183750	0.279753	0.161684	0.946360	0.958532	-0.102846	-0.265780
04100														-1.885320	9.307714	-2.631593	-0.010328	-0.003106	-0.001034	0.167480	-0.738770	0.493896	0.054383	0.981483	-0.183668	0.279660	0.161607	0.946400	0.958558	-0.102832	-0.265693
04101														-1.835114	9.317167	-2.599460	-0.009979	-0.004966	0.002539	0.165527	-0.738770	0.491699	0.054448	0.981499	-0.183562	0.279575	0.161497	0.946444	0.958579	-0.102851	-0.265609
04102														-1.851803	9.301310	-2.623662	-0.012297	-0.005374	0.005796	0.167725	-0.740723	0.489502	0.054514	0.981522	-0.183421	0.279460	0.161356	0.946502	0.958609	-0.102857	-0.265499
04103														-1.828590	9.402380	-2.631353	-0.016903	-0.004649	0.003543	0.165527	-0.736572	0.498291	0.054582	0.981540	-0.183305	0.279302	0.161242	0.946568	0.958651	-0.102863	-0.265345
04104														-1.817495	9.433316	-2.656969	-0.011535	-0.002486	-0.002922	0.161377	-0.736572	0.489502	0.054597	0.981551	-0.183239	0.279199	0.161186	0.946608	0.958680	-0.102842	-0.265248
04105														-1.806647	9.365407	-2.596122	-0.010322	0.000422	0.000639	0.161377	-0.740723	0.496094	0.054600	0.981571	-0.183133	0.279113	0.161092	0.946649	0.958705	-0.102802	-0.265173
04106														-1.845858	9.387126	-2.653057	-0.016476	0.007157	-0.005403	0.159180	-0.734619	0.493652	0.054515	0.981588	-0.183065	0.278964	0.161065	0.946698	0.958753	-0.102678	-0.265047
04107														-1.779832	9.373212	-2.640396	-0.009433	0.003206	-0.009810	0.159424	-0.740723	0.496094	0.054457	0.981595	-0.183047	0.278892	0.161071	0.946718	0.958777	-0.102606	-0.264987
04108														-1.777585	9.330774	-2.708825	-0.002030	0.004449	-0.007301	0.163574	-0.742920	0.491699	0.054393	0.981606	-0.183004	0.278882	0.161047	0.946725	0.958784	-0.102532	-0.264993
04109														-1.809817	9.286839	-2.683215	0.001838	-0.001151	-0.006769	0.163330	-0.736572	0.493896	0.054388	0.981613	-0.182968	0.278913	0.161011	0.946722	0.958775	-0.102523	-0.265027
04110														-1.810853	9.148595	-2.641181	-0.004989	-0.002484	0.001270	0.163574	-0.740723	0.493896	0.054415	0.981631	-0.182863	0.278870	0.160907	0.946753	0.958786	-0.102512	-0.264992
04111														-1.853468	9.173228	-2.674467	-0.012519	-0.003621	0.000493	0.165527	-0.736572	0.496094	0.054457	0.981647	-0.182769	0.278762	0.160817	0.946800	0.958815	-0.102509	-0.264888
04112														-1.807743	9.236690	-2.649582	-0.010645	-0.009509	0.018292	0.163330	-0.734619	0.491455	0.054598	0.981685	-0.182521	0.278656	0.160551	0.946876	0.958838	-0.102558	-0.264786
04113														-1.887689	9.223789	-2.608993	-0.009918	-0.011689	0.016670	0.159424	-0.740723	0.493896	0.054764	0.981717	-0.182299	0.278567	0.160302	0.946944	0.958854	-0.102641	-0.264695
04114														-1.867334	9.288668	-2.637415	-0.020486	-0.007526	0.022451	0.163574	-0.740723	0.491699	0.054897	0.981764	-0.182006	0.278364	0.160005	0.947054	0.958905	-0.102655	-0.264504
04115														-1.801702	9.416591	-2.641873	-0.015502	-0.008570	0.019509	0.163574	-0.742920	0.496094	0.055038	0.981805	-0.181743	0.278214	0.159731	0.947145	0.958941	-0.102692	-0.264361
04116														-1.816535	9.440556	-2.620784	-0.012111	-0.012203	0.018200	0.165527	-0.740723	0.489502	0.055204	0.981840	-0.181502	0.278093	0.159467	0.947224	0.958966	-0.102765	-0.264240
04117														-1.856195	9.414750	-2.622145	-0.013659	-0.006192	0.014415	0.161621	-0.742920	0.489502	0.055313	0.981874	-0.181286	0.277965	0.159243	0.947300	0.958997	-0.102789	-0.264118
04118														-1.832486	9.417131	-2.542803	-0.019346	-0.004946	0.008544	0.161377	-0.740723	0.498291	0.055383	0.981901	-0.181117	0.277780	0.159082	0.947381	0.959047	-0.102780	-0.263942
04119														-1.839436	9.483092	-2.624541	-0.020768	0.000961	0.003027	0.163574	-0.742920	0.491699	0.055386	0.981925	-0.180986	0.277590	0.158975	0.947455	0.959102	-0.102716	-0.263768
04120														-1.834221	9.429631	-2.615838	-0.008604	0.002911	-0.002719	0.169922	-0.747070	0.498535	0.055349	0.981942	-0.180904	0.277515	0.158914	0.947487	0.959126	-0.102646	-0.263708
04121														-1.842231	9.396238	-2.612108	-0.008353	0.002701	-0.006183	0.167480	-0.736572	0.489502	0.055317	0.981952	-0.180862	0.277451	0.158889	0.947510	0.959146	-0.102594	-0.263654
04122														-1.859549	9.380174	-2.636919	-0.005546	0.008194	-0.004253	0.161621	-0.744873	0.489502	0.055226	0.981972	-0.180781	0.277406	0.158839	0.947532	0.959164	-0.102478	-0.263633
04123														-1.854392	9.326417	-2.629252	-0.005064	0.009751	-0.000738	0.161377	-0.738770	0.485107	0.055141	0.981997	-0.180667	0.277365	0.158756	0.947557	0.959181	-0.102361	-0.263618
04124														-1.828587	9.285929	-2.620138	-0.007130	0.009132	-0.000944	0.159424	-0.740723	0.496094	0.055050	0.982024	-0.180552	0.277303	0.158676	0.947589	0.959204	-0.102232	-0.263583
04125														-1.837799	9.303499	-2.647900	-0.007996	0.004363	-0.000936	0.161377	-0.738770	0.491699	0.055010	0.982045	-0.180449	0.277235	0.158595	0.947622	0.959226	-0.102156	-0.263533
04126														-1.819150	9.367864	-2.676911	-0.012609	0.001567	-0.004862	0.163574	-0.738770	0.482910	0.054980	0.982057	-0.180391	0.277123	0.158558	0.947661	0.959260	-0.102093	-0.263433
04127														-1.775009	9.391685	-2.696815	-0.014460	-0.004339	-0.001440	0.165771	-0.742920	0.491699	0.055028	0.982068	-0.180320	0.276990	0.158491	0.947711	0.959296	-0.102097	-0.263302
04128														-1.789712	9.364352	-2.644610	-0.010840	-0.006207	0.004225	0.161377	-0.740723	0.491699	0.055098	0.982086	-0.180196	0.276889	0.158364	0.947762	0.959321	-0.102114	-0.263204
04129														-1.795742	9.379159	-2.695628	-0.013742	-0.010043	-0.004742	0.163574	-0.738770	0.487305	0.055190	0.982086	-0.180172	0.276771	0.158329	0.947803	0.959350	-0.102175	-0.263074
04130														-1.799985	9.382437	-2.669881	-0.018866	-0.015946	-0.003413	0.157227	-0.738770	0.489502	0.055332	0.982082	-0.180146	0.276597	0.158284	0.947861	0.959392	-0.102275	-0.262883
04131														-1.780237	9.396056	-2.666591	-0.015467	-0.016053	-0.003051	0.159424	-0.740723	0.487305	0.055483	0.982079	-0.180118	0.276458	0.158232	0.947910	0.959423	-0.102388	-0.262724
04132														-1.792215	9.365755	-2.637938	-0.014742	-0.018231	-0.004676	0.157471	-0.742920	0.487305	0.055644	0.982071	-0.180110	0.276324	0.158196	0.947955	0.959452	-0.102517	-0.262568
04133														-1.780352	9.345743	-2.631867	-0.014875	-0.021652	-0.004619	0.163574	-0.742920	0.491699	0.055842	0.982061	-0.180108	0.276187	0.158156	0.948002	0.959480	-0.102682	-0.262401
04134														-1.813253	9.302201	-2.604308	-0.019964	-0.022475	-0.010377	0.161133	-0.734619	0.489258	0.056028	0.982040	-0.180164	0.276007	0.158182	0.948050	0.959521	-0.102844	-0.262187
04135														-1.781286	9.295539	-2.596129	-0.024470	-0.023403	-0.005585	0.159424	-0.742920	0.489502	0.056244	0.982024	-0.180183	0.275788	0.158166	0.948116	0.959572	-0.103018	-0.261934
04136														-1.792508	9.304647	-2.522002	-0.013783	-0.018647	0.000682	0.167725	-0.744873	0.489502	0.056423	0.982024	-0.180125	0.275660	0.158076	0.948168	0.959598	-0.103152	-0.261786
04137														-1.826858	9.272701	-2.571514	-0.007195	-0.010048	-0.000549	0.163574	-0.740723	0.485107	0.056527	0.982030	-0.180060	0.275599	0.157993	0.948200	0.959609	-0.103223	-0.261716
04138														-1.822693	9.309341	-2.549660	-0.006703	-0.004971	0.004642	0.159668	-0.747070	0.487549	0.056586	0.982051	-0.179929	0.275538	0.157857	0.948240	0.959623	-0.103234	-0.261659
04139														-1.822265	9.309612	-2.548978	-0.006695	-0.001447	0.006320	0.161377	-0.740723	0.489502	0.056625	0.982077	-0.179774	0.275472	0.157705	0.948285	0.959640	-0.103219	-0.261605
04140														-1.809784	9.379915	-2.530040	-0.010085	0.002185	0.007641	0.165771	-0.744873	0.489502	0.056624	0.982110	-0.179595	0.275376	0.157543	0.948340	0.959667	-0.103155	-0.261529
04141														-1.806682	9.467689	-2.539251	-0.010436	0.004053	0.004072	0.161377	-0.740723	0.491699	0.056605	0.982137	-0.179451	0.275283	0.157418	0.948387	0.959695	-0.103083	-0.261455
04142														-1.761970	9.491505	-2.559723	-0.007264	0.005711	-0.000872	0.161377	-0.736572	0.489502	0.056546	0.982160	-0.179344	0.275219	0.157337	0.948419	0.959717	-0.102988	-0.261412
04143														-1.797717	9.411468	-2.554338	-0.015394	0.006655	-0.001739	0.161377	-0.740723	0.491699	0.056482	0.982182	-0.179246	0.275086	0.157274	0.948468	0.959759	-0.102880	-0.261301
04144														-1.823719	9.452419	-2.561562	-0.015629	0.004897	-0.008718	0.159668	-0.744873	0.489502	0.056410	0.982191	-0.179216	0.274946	0.157279	0.948508	0.959803	-0.102780	-0.261178
04145														-1.811365	9.432307	-2.556153	-0.011956	0.015155	-0.006789	0.163574	-0.744873	0.491699	0.056249	0.982214	-0.179142	0.274846	0.157260	0.948540	0.959842	-0.102591	-0.261112
04146														-1.812494	9.393207	-2.600316	-0.013173	0.012257	-0.010353	0.165771	-0.742920	0.491699	0.056102	0.982229	-0.179108	0.274731	0.157278	0.948571	0.959883	-0.102423	-0.261025
04147														-1.800422	9.372999	-2.595085	-0.011115	0.009353	-0.011828	0.163818	-0.747070	0.489746	0.055989	0.982236	-0.179103	0.274643	0.157312	0.948590	0.959915	-0.102300	-0.260957
04148														-1.812943	9.303210	-2.612236	-0.015496	0.008318	-0.008769	0.159668	-0.744873	0.489502	0.055884	0.982249	-0.179064	0.274505	0.157317	0.948630	0.959960	-0.102167	-0.260841
04149														-1.810064	9.300632	-2.634838	-0.017561	0.007699	-0.008972	0.159668	-0.747070	0.489502	0.055791	0.982260	-0.179031	0.274349	0.157327	0.948673	0.960010	-0.102045	-0.260704
04150														-1.771423	9.378437	-2.661611	-0.017818	0.004380	-0.007186	0.157227	-0.740723	0.491699	0.055728	0.982272	-0.178988	0.274187	0.157318	0.948721	0.960060	-0.101946	-0.260559
04151														-1.757669	9.406545	-2.711044	-0.013919	0.003866	-0.013758	0.159424	-0.738770	0.487305	0.055653	0.982273	-0.179007	0.274071	0.157369	0.948747	0.960098	-0.101861	-0.260455
04152														-1.733266	9.366084	-2.701049	-0.015904	-0.008991	-0.011971	0.159424	-0.738770	0.489502	0.055705	0.982263	-0.179043	0.273931	0.157405	0.948781	0.960135	-0.101898	-0.260304
04153														-1.721862	9.346059	-2.694839	-0.021500	-0.012925	-0.012478	0.157471	-0.742920	0.485107	0.055798	0.982248	-0.179097	0.273743	0.157453	0.948827	0.960183	-0.101970	-0.260098
04154														-1.709484	9.235933	-2.702073	-0.026750	-0.022253	-0.011099	0.161621	-0.747070	0.485352	0.055980	0.982226	-0.179160	0.273498	0.157492	0.948892	0.960242	-0.102119	-0.259820
04155														-1.729617	9.172361	-2.669021	-0.036029	-0.034492	-0.003093	0.159424	-0.742920	0.487305	0.056308	0.982204	-0.179178	0.273156	0.157461	0.948995	0.960320	-0.102380	-0.259428
04156														-1.699227	9.118037	-2.604006	-0.043814	-0.038944	-0.002062	0.163574	-0.742920	0.487305	0.056675	0.982179	-0.179198	0.272742	0.157429	0.949120	0.960417	-0.102666	-0.258959
04157														-1.758907	9.067641	-2.527146	-0.047010	-0.045703	0.009973	0.161621	-0.744873	0.489502	0.057147	0.982165	-0.179125	0.272294	0.157283	0.949273	0.960516	-0.103022	-0.258449
04158														-1.757032	9.017978	-2.491037	-0.048106	-0.043227	0.016814	0.163574	-0.740723	0.487305	0.057606	0.982165	-0.178976	0.271827	0.157070	0.949441	0.960620	-0.103344	-0.257931
04159														-1.830573	9.129595	-2.434770	-0.051505	-0.037653	0.028603	0.159668	-0.744873	0.485107	0.058051	0.982188	-0.178706	0.271329	0.156747	0.949637	0.960735	-0.103616	-0.257396
04160														-1.809091	9.234770	-2.414081	-0.045158	-0.025332	0.032533	0.159424	-0.742920	0.485107	0.058381	0.982231	-0.178362	0.270881	0.156377	0.949826	0.960841	-0.103767	-0.256938
04161														-1.822277	9.259550	-2.390108	-0.038780	-0.002456	0.041515	0.163818	-0.744873	0.482910	0.058520	0.982312	-0.177875	0.270492	0.155912	0.950014	0.960942	-0.103708	-0.256583
04162														-1.795156	9.361810	-2.395321	-0.028296	0.011097	0.045844	0.157715	-0.747070	0.483154	0.058535	0.982413	-0.177310	0.270198	0.155394	0.950182	0.961024	-0.103528	-0.256350
04163														-1.783926	9.487007	-2.381384	-0.027392	0.024487	0.040463	0.163574	-0.742920	0.485107	0.058416	0.982518	-0.176766	0.269915	0.154928	0.950338	0.961110	-0.103226	-0.256146
04164														-1.760898	9.552601	-2.409091	-0.020432	0.032789	0.034043	0.159424	-0.740723	0.478516	0.058190	0.982623	-0.176258	0.269705	0.154518	0.950465	0.961183	-0.102846	-0.256026
04165														-1.814016	9.550402	-2.390946	-0.019034	0.047722	0.032186	0.159668	-0.744873	0.480713	0.057828	0.982737	-0.175736	0.269510	0.154128	0.950584	0.961260	-0.102333	-0.255945
04166														-1.827798	9.496530	-2.460644	-0.023720	0.057190	0.026310	0.153320	-0.744873	0.487305	0.057347	0.982854	-0.175240	0.269272	0.153796	0.950705	0.961355	-0.101707	-0.255836
04167														-1.803922	9.510564	-2.458334	-0.017587	0.065831	0.012818	0.164063	-0.753174	0.483154	0.056751	0.982958	-0.174850	0.269103	0.153590	0.950786	0.961438	-0.101010	-0.255801
04168														-1.814216	9.492658	-2.507475	-0.015883	0.070261	0.019927	0.153564	-0.749023	0.485352	0.056127	0.983078	-0.174380	0.268945	0.153313	0.950875	0.961519	-0.100268	-0.255788
04169														-1.859581	9.433492	-2.507603	-0.014909	0.067896	0.014836	0.157471	-0.744873	0.480713	0.055520	0.983185	-0.173969	0.268797	0.153086	0.950954	0.961595	-0.099559	-0.255777
04170														-1.863965	9.400682	-2.504670	-0.017950	0.069650	0.019753	0.151367	-0.747070	0.482910	0.054902	0.983302	-0.173502	0.268619	0.152813	0.951048	0.961681	-0.098820	-0.255744
04171														-1.923323	9.413268	-2.539715	-0.019143	0.073805	0.019579	0.153320	-0.744873	0.485107	0.054247	0.983422	-0.173027	0.268427	0.152542	0.951146	0.961771	-0.098042	-0.255702
04172														-1.850570	9.487020	-2.537486	-0.014767	0.071326	0.014843	0.153564	-0.749023	0.483154	0.053599	0.983532	-0.172603	0.268283	0.152313	0.951223	0.961848	-0.097291	-0.255701
04173														-1.852609	9.541558	-2.544198	-0.015118	0.069692	0.009599	0.153320	-0.742920	0.482910	0.052955	0.983632	-0.172234	0.268139	0.152136	0.951292	0.961924	-0.096559	-0.255694
04174														-1.888976	9.564301	-2.602073	-0.013072	0.063272	0.006425	0.151611	-0.751221	0.487549	0.052362	0.983720	-0.171911	0.268016	0.151988	0.951350	0.961991	-0.095889	-0.255694
04175														-1.846405	9.590943	-2.598704	-0.014842	0.060539	-0.007704	0.151367	-0.742920	0.480713	0.051759	0.983783	-0.171730	0.267885	0.151981	0.951388	0.962059	-0.095247	-0.255675
04176														-1.878881	9.598461	-2.604084	-0.017046	0.056504	-0.007867	0.149170	-0.742920	0.489502	0.051192	0.983843	-0.171560	0.267732	0.151978	0.951432	0.962133	-0.094638	-0.255626
04177														-1.890210	9.567823	-2.576766	-0.019672	0.052523	-0.020323	0.155518	-0.744873	0.482910	0.050629	0.983879	-0.171519	0.267564	0.152099	0.951460	0.962209	-0.094064	-0.255550
04178														-1.866804	9.578352	-2.598341	-0.017345	0.052948	-0.023571	0.145020	-0.742920	0.476318	0.050055	0.983910	-0.171508	0.267415	0.152250	0.951477	0.962280	-0.093490	-0.255492
04179														-1.872018	9.542062	-2.619184	-0.013961	0.045798	-0.026603	0.155518	-0.747070	0.485107	0.049544	0.983930	-0.171544	0.267296	0.152428	0.951482	0.962340	-0.092993	-0.255449
04180														-1.831457	9.516883	-2.584721	-0.009716	0.036379	-0.033012	0.157715	-0.749023	0.485352	0.049103	0.983931	-0.171665	0.267226	0.152665	0.951464	0.962382	-0.092593	-0.255435
04181														-1.808825	9.436872	-2.621188	-0.014186	0.033515	-0.038689	0.153564	-0.749023	0.478760	0.048684	0.983918	-0.171857	0.267118	0.152968	0.951446	0.962433	-0.092226	-0.255375
04182														-1.810045	9.424304	-2.543671	-0.025382	0.025665	-0.039767	0.153320	-0.744873	0.480713	0.048329	0.983899	-0.172069	0.266899	0.153285	0.951456	0.962512	-0.091908	-0.255194
04183														-1.765135	9.445237	-2.586278	-0.025256	0.018535	-0.044898	0.157715	-0.747070	0.480957	0.048035	0.983863	-0.172354	0.266679	0.153657	0.951458	0.962588	-0.091667	-0.254995
04184														-1.759683	9.466250	-2.510440	-0.026724	0.012325	-0.046714	0.155762	-0.751221	0.480957	0.047790	0.983820	-0.172666	0.266451	0.154044	0.951459	0.962663	-0.091477	-0.254778
04185														-1.742285	9.389196	-2.520954	-0.031321	0.013073	-0.048953	0.153564	-0.747070	0.480713	0.047542	0.983772	-0.173008	0.266176	0.154463	0.951468	0.962751	-0.091285	-0.254513
04186														-1.749909	9.430614	-2.448824	-0.030720	0.014516	-0.047149	0.149414	-0.749023	0.487549	0.047275	0.983730	-0.173319	0.265909	0.154858	0.951479	0.962838	-0.091068	-0.254262
04187														-1.709569	9.415499	-2.512386	-0.028859	0.023965	-0.048805	0.155762	-0.753174	0.483154	0.046912	0.983694	-0.173623	0.265662	0.155268	0.951481	0.962924	-0.090761	-0.254046
04188														-1.733813	9.440819	-2.466888	-0.017072	0.026239	-0.049316	0.153564	-0.751221	0.483154	0.046526	0.983659	-0.173925	0.265527	0.155671	0.951452	0.962980	-0.090449	-0.253946
04189														-1.677243	9.341225	-2.421042	-0.010882	0.031615	-0.046964	0.147461	-0.751221	0.485352	0.046099	0.983632	-0.174195	0.265449	0.156049	0.951412	0.963022	-0.090099	-0.253910
04190														-1.692099	9.270920	-2.439728	-0.008956	0.035847	-0.043305	0.153564	-0.749023	0.483154	0.045636	0.983614	-0.174416	0.265389	0.156386	0.951374	0.963061	-0.089705	-0.253904
04191														-1.709949	9.203388	-2.434256	-0.017493	0.044104	-0.035567	0.151611	-0.751221	0.478760	0.045112	0.983616	-0.174540	0.265244	0.156653	0.951370	0.963126	-0.089213	-0.253831
04192														-1.695504	9.219108	-2.407499	-0.020889	0.044213	-0.035922	0.149414	-0.749023	0.485352	0.044588	0.983617	-0.174669	0.265065	0.156928	0.951375	0.963199	-0.088719	-0.253726
04193														-1.676575	9.232355	-2.404775	-0.017584	0.053046	-0.021681	0.149414	-0.749023	0.478760	0.044015	0.983648	-0.174638	0.264909	0.157058	0.951397	0.963268	-0.088139	-0.253664
04194														-1.703148	9.273007	-2.412595	-0.015250	0.053484	-0.024919	0.153564	-0.751221	0.487549	0.043432	0.983674	-0.174639	0.264780	0.157220	0.951406	0.963330	-0.087562	-0.253629
04195														-1.692331	9.304035	-2.438591	-0.014341	0.060069	-0.016147	0.149414	-0.749023	0.478760	0.042807	0.983719	-0.174540	0.264655	0.157294	0.951429	0.963393	-0.086921	-0.253613
04196														-1.688470	9.340308	-2.416775	-0.014224	0.067012	-0.014447	0.149414	-0.744873	0.480713	0.042121	0.983772	-0.174408	0.264531	0.157352	0.951454	0.963457	-0.086213	-0.253610
04197														-1.706078	9.375945	-2.472930	-0.015830	0.067925	-0.011123	0.147461	-0.753174	0.480957	0.041434	0.983831	-0.174239	0.264386	0.157377	0.951490	0.963526	-0.085490	-0.253590
04198														-1.677666	9.461829	-2.427438	-0.019226	0.068033	-0.011478	0.147461	-0.749023	0.476563	0.040746	0.983889	-0.174076	0.264213	0.157409	0.951532	0.963603	-0.084764	-0.253542
04199														-1.678616	9.513376	-2.457655	-0.013969	0.073869	-0.014441	0.151611	-0.749023	0.480957	0.039990	0.983947	-0.173921	0.264082	0.157463	0.951560	0.963671	-0.083983	-0.253545
04200														-1.731892	9.507175	-2.465648	-0.012497	0.073054	-0.016004	0.151611	-0.749023	0.483154	0.039242	0.984001	-0.173788	0.263975	0.157534	0.951578	0.963731	-0.083217	-0.253569
04201														-1.685535	9.479906	-2.455163	-0.016835	0.080646	-0.018275	0.145264	-0.747070	0.478516	0.038417	0.984056	-0.173660	0.263826	0.157633	0.951603	0.963805	-0.082374	-0.253564
04202														-1.718685	9.448249	-2.506578	-0.018322	0.076146	-0.027114	0.147461	-0.749023	0.478760	0.037609	0.984094	-0.173624	0.263667	0.157818	0.951616	0.963880	-0.081568	-0.253538
04203														-1.711393	9.443189	-2.553965	-0.020525	0.075619	-0.025586	0.145264	-0.744873	0.480713	0.036808	0.984133	-0.173572	0.263480	0.157987	0.951640	0.963962	-0.080761	-0.253484
04204														-1.708063	9.440692	-2.577336	-0.019513	0.076790	-0.028958	0.145508	-0.751221	0.483154	0.035989	0.984167	-0.173553	0.263310	0.158191	0.951653	0.964040	-0.079947	-0.253447
04205														-1.666122	9.377229	-2.588074	-0.015193	0.072720	-0.024938	0.149414	-0.749023	0.480957	0.035215	0.984204	-0.173502	0.263178	0.158349	0.951663	0.964104	-0.079175	-0.253445
04206														-1.718929	9.319477	-2.565481	-0.015563	0.062447	-0.024888	0.143555	-0.753174	0.474365	0.034545	0.984231	-0.173480	0.263045	0.158509	0.951674	0.964165	-0.078509	-0.253421
04207														-1.669425	9.289765	-2.578116	-0.021695	0.055349	-0.020268	0.147461	-0.749023	0.478760	0.033956	0.984261	-0.173430	0.262840	0.158627	0.951710	0.964242	-0.077900	-0.253317
04208														-1.706619	9.260830	-2.604896	-0.022207	0.045164	-0.018499	0.147461	-0.749023	0.480957	0.033469	0.984284	-0.173391	0.262640	0.158729	0.951749	0.964313	-0.077393	-0.253200
04209														-1.749054	9.324736	-2.592202	-0.029225	0.042118	-0.001792	0.151855	-0.755371	0.485352	0.033057	0.984332	-0.173201	0.262362	0.158672	0.951835	0.964403	-0.076906	-0.253006
04210														-1.708668	9.403557	-2.616650	-0.027698	0.036071	0.001916	0.143311	-0.751221	0.480957	0.032711	0.984380	-0.172991	0.262103	0.158578	0.951922	0.964485	-0.076480	-0.252821
04211														-1.683964	9.453742	-2.590886	-0.027531	0.032467	-0.001531	0.145508	-0.751221	0.476563	0.032391	0.984420	-0.172823	0.261844	0.158517	0.952003	0.964567	-0.076089	-0.252630
04212														-1.668649	9.521670	-2.593142	-0.029402	0.024724	-0.006929	0.147461	-0.751221	0.476563	0.032132	0.984446	-0.172726	0.261570	0.158510	0.952080	0.964649	-0.075772	-0.252409
04213														-1.658138	9.592070	-2.570993	-0.033333	0.016358	-0.012557	0.143311	-0.751221	0.480957	0.031941	0.984456	-0.172704	0.261251	0.158562	0.952159	0.964742	-0.075532	-0.252126
04214														-1.686914	9.545734	-2.567890	-0.034376	0.016908	-0.016165	0.145264	-0.749023	0.480957	0.031733	0.984461	-0.172715	0.260933	0.158650	0.952231	0.964835	-0.075284	-0.251843
04215														-1.699820	9.515109	-2.538829	-0.032606	0.015918	-0.021195	0.145264	-0.749023	0.476563	0.031518	0.984457	-0.172773	0.260631	0.158784	0.952291	0.964924	-0.075044	-0.251576
04216														-1.723968	9.414481	-2.530024	-0.021137	0.020125	-0.025166	0.145508	-0.751221	0.476563	0.031255	0.984450	-0.172862	0.260443	0.158950	0.952315	0.964983	-0.074786	-0.251425
