// Start Time: Unknown
// Update Rate: 100.0Hz
// Filter Profile: human (46.1)
// Option Flags: AHS Disabled ICC Disabled 
// Firmware Version: 4.0.2
PacketCounter	SampleTimeFine	Year	Month	Day	Second	UTC_Nano	UTC_Year	UTC_Month	UTC_Day	UTC_Hour	UTC_Minute	UTC_Second	UTC_Valid	Acc_X	Acc_Y	Acc_Z	Gyr_X	Gyr_Y	Gyr_Z	Mag_X	Mag_Y	Mag_Z	Mat[1][1]	Mat[2][1]	Mat[3][1]	Mat[1][2]	Mat[2][2]	Mat[3][2]	Mat[1][3]	Mat[2][3]	Mat[3][3]
03584														-9.596292	2.045058	-0.443462	0.048874	0.005482	0.009227	0.812500	-0.340576	0.395752	-0.116511	0.160279	-0.980171	-0.383561	0.903067	0.193264	0.916137	0.398473	-0.043740
03585														-9.594463	2.022590	-0.437511	0.034573	0.015979	0.007114	0.810303	-0.334473	0.400146	-0.116693	0.160339	-0.980140	-0.383280	0.903162	0.193378	0.916231	0.398233	-0.043938
03586														-9.623897	2.015469	-0.455655	0.017214	0.016308	0.003812	0.812500	-0.340576	0.397949	-0.116866	0.160385	-0.980112	-0.383172	0.903185	0.193485	0.916254	0.398163	-0.044096
03587														-9.601780	2.038169	-0.471728	0.011396	0.019926	-0.000455	0.810547	-0.336670	0.393555	-0.117055	0.160361	-0.980093	-0.383112	0.903200	0.193535	0.916255	0.398139	-0.044288
03588														-9.629698	2.007435	-0.482260	0.020904	0.021089	-0.000791	0.812500	-0.340576	0.393555	-0.117250	0.160351	-0.980072	-0.382979	0.903243	0.193598	0.916286	0.398046	-0.044494
03589														-9.631221	2.030258	-0.492763	0.039750	0.021271	-0.001075	0.812256	-0.332520	0.404541	-0.117449	0.160315	-0.980054	-0.382659	0.903371	0.193629	0.916394	0.397768	-0.044754
03590														-9.598371	1.991191	-0.463703	0.048325	0.017422	-0.004850	0.812500	-0.338623	0.393555	-0.117597	0.160277	-0.980042	-0.382275	0.903533	0.193635	0.916535	0.397416	-0.044983
03591														-9.602726	1.959519	-0.481135	0.054973	0.024521	-0.002511	0.812500	-0.340576	0.400146	-0.117821	0.160216	-0.980025	-0.381817	0.903724	0.193645	0.916697	0.397006	-0.045304
03592														-9.596679	1.967108	-0.462048	0.045288	0.021213	-0.001790	0.814453	-0.334473	0.400146	-0.118013	0.160198	-0.980005	-0.381463	0.903864	0.193688	0.916820	0.396694	-0.045558
03593														-9.577314	1.935466	-0.485390	0.019779	0.023973	0.003266	0.812500	-0.340576	0.400146	-0.118254	0.160191	-0.979977	-0.381322	0.903906	0.193770	0.916848	0.396601	-0.045806
03594														-9.572807	1.966613	-0.473517	0.009689	0.022084	-0.000618	0.808350	-0.336670	0.397949	-0.118461	0.160175	-0.979955	-0.381288	0.903906	0.193837	0.916835	0.396607	-0.046005
03595														-9.547464	1.943173	-0.473983	-0.006773	0.023501	0.002382	0.810547	-0.336670	0.404541	-0.118694	0.160162	-0.979928	-0.381391	0.903844	0.193923	0.916762	0.396753	-0.046196
03596														-9.547335	1.943289	-0.476099	-0.008983	0.024045	-0.000735	0.810547	-0.338623	0.400146	-0.118923	0.160136	-0.979905	-0.381528	0.903771	0.193997	0.916676	0.396931	-0.046383
03597														-9.575651	2.012836	-0.495679	-0.016695	0.023754	-0.001892	0.810547	-0.338623	0.395752	-0.119141	0.160083	-0.979887	-0.381726	0.903677	0.194046	0.916564	0.397168	-0.046557
03598														-9.568083	1.997485	-0.467435	-0.019197	0.023935	-0.007117	0.808350	-0.338623	0.406738	-0.119339	0.160005	-0.979876	-0.381969	0.903570	0.194064	0.916438	0.397441	-0.046714
03599														-9.546090	2.019363	-0.483633	-0.017072	0.029092	-0.009375	0.806396	-0.338623	0.400146	-0.119578	0.159863	-0.979870	-0.382180	0.903486	0.194040	0.916319	0.397689	-0.046940
03600														-9.540267	2.026349	-0.463512	-0.014512	0.022791	-0.014149	0.810547	-0.338623	0.404541	-0.119750	0.159721	-0.979872	-0.382384	0.903411	0.193989	0.916211	0.397918	-0.047108
03601														-9.540476	2.024848	-0.465756	-0.006883	0.028785	-0.018363	0.806396	-0.340820	0.397949	-0.119952	0.159500	-0.979883	-0.382513	0.903381	0.193872	0.916131	0.398073	-0.047351
03602														-9.560046	2.054583	-0.447725	-0.007345	0.026279	-0.020083	0.814453	-0.338623	0.395752	-0.120128	0.159294	-0.979895	-0.382661	0.903342	0.193761	0.916046	0.398244	-0.047561
03603														-9.542625	2.044186	-0.478516	-0.003638	0.026243	-0.020554	0.814453	-0.338623	0.406738	-0.120298	0.159062	-0.979912	-0.382763	0.903329	0.193621	0.915981	0.398366	-0.047786
03604														-9.537050	2.050098	-0.458699	-0.002139	0.026753	-0.024144	0.814453	-0.334473	0.402344	-0.120459	0.158798	-0.979935	-0.382851	0.903329	0.193446	0.915923	0.398471	-0.048018
03605														-9.543306	2.039867	-0.483331	-0.004103	0.023736	-0.022275	0.806396	-0.334717	0.400146	-0.120599	0.158561	-0.979956	-0.382958	0.903317	0.193289	0.915860	0.398593	-0.048217
03606														-9.568894	2.061262	-0.487199	-0.004272	0.021593	-0.021888	0.808350	-0.336670	0.402344	-0.120721	0.158337	-0.979977	-0.383063	0.903305	0.193137	0.915800	0.398709	-0.048395
03607														-9.564421	1.989955	-0.465468	-0.013904	0.022202	-0.024066	0.808350	-0.338623	0.402344	-0.120841	0.158090	-0.980003	-0.383263	0.903257	0.192968	0.915700	0.398917	-0.048560
03608														-9.566378	2.010998	-0.474926	-0.017597	0.017421	-0.019469	0.808350	-0.334717	0.402344	-0.120933	0.157905	-0.980021	-0.383487	0.903188	0.192847	0.915594	0.399147	-0.048671
03609														-9.560771	2.017485	-0.453801	-0.034013	0.017928	-0.015248	0.806396	-0.338623	0.400146	-0.121047	0.157754	-0.980031	-0.383860	0.903045	0.192774	0.915423	0.399529	-0.048756
03610														-9.586267	2.039582	-0.456803	-0.044954	0.024088	-0.017104	0.814453	-0.340576	0.402344	-0.121210	0.157563	-0.980042	-0.384331	0.902863	0.192689	0.915204	0.400016	-0.048880
03611														-9.562881	2.037666	-0.464193	-0.054599	0.024693	-0.019284	0.812500	-0.334473	0.395752	-0.121370	0.157349	-0.980056	-0.384897	0.902643	0.192586	0.914944	0.400595	-0.048991
03612														-9.541163	2.058666	-0.479217	-0.055065	0.022186	-0.021006	0.808350	-0.334717	0.404541	-0.121501	0.157131	-0.980075	-0.385466	0.902426	0.192468	0.914688	0.401170	-0.049077
03613														-9.560905	2.088417	-0.459729	-0.049218	0.022500	-0.019598	0.812500	-0.336670	0.402344	-0.121639	0.156922	-0.980091	-0.385983	0.902228	0.192360	0.914451	0.401697	-0.049177
03614														-9.549553	2.102654	-0.416095	-0.044046	0.019059	-0.020778	0.810547	-0.338623	0.404541	-0.121742	0.156731	-0.980109	-0.386462	0.902046	0.192252	0.914235	0.402180	-0.049247
03615														-9.555718	2.092965	-0.439475	-0.036110	0.020611	-0.018741	0.808350	-0.334717	0.404541	-0.121867	0.156538	-0.980125	-0.386858	0.901899	0.192146	0.914051	0.402585	-0.049354
03616														-9.550166	2.099390	-0.418496	-0.030029	0.022179	-0.016469	0.808350	-0.336670	0.400146	-0.122019	0.156374	-0.980132	-0.387204	0.901765	0.192075	0.913884	0.402947	-0.049484
03617														-9.563685	2.105234	-0.472193	-0.026515	0.016079	-0.013682	0.808350	-0.330566	0.402100	-0.122121	0.156244	-0.980140	-0.387506	0.901649	0.192014	0.913743	0.403259	-0.049565
03618														-9.578503	2.065932	-0.429312	-0.028856	0.018409	-0.019291	0.810547	-0.336670	0.406738	-0.122219	0.156068	-0.980156	-0.387842	0.901526	0.191909	0.913587	0.403601	-0.049654
03619														-9.571346	2.049158	-0.400395	-0.026715	0.018754	-0.017415	0.808350	-0.334717	0.397949	-0.122331	0.155894	-0.980169	-0.388151	0.901414	0.191811	0.913441	0.403918	-0.049761
03620														-9.601145	2.039737	-0.417964	-0.027360	0.018928	-0.022876	0.810547	-0.338623	0.402344	-0.122423	0.155684	-0.980191	-0.388480	0.901302	0.191674	0.913289	0.404250	-0.049859
03621														-9.550084	2.067973	-0.416539	-0.025892	0.015519	-0.023592	0.806396	-0.336670	0.395752	-0.122481	0.155468	-0.980218	-0.388788	0.901202	0.191516	0.913150	0.404554	-0.049936
03622														-9.581628	2.081268	-0.441521	-0.026121	0.014268	-0.024456	0.806396	-0.334717	0.404541	-0.122520	0.155269	-0.980245	-0.389113	0.901094	0.191366	0.913006	0.404872	-0.049985
03623														-9.568871	2.071614	-0.390024	-0.024460	0.016933	-0.028421	0.808350	-0.334717	0.402344	-0.122573	0.155003	-0.980281	-0.389414	0.901008	0.191160	0.912871	0.405166	-0.050079
03624														-9.598900	2.061107	-0.407333	-0.019848	0.012785	-0.033820	0.814453	-0.336426	0.402344	-0.122568	0.154718	-0.980326	-0.389686	0.900943	0.190911	0.912755	0.405419	-0.050136
03625														-9.518746	2.095693	-0.389127	-0.022579	0.011723	-0.039913	0.808350	-0.334717	0.404541	-0.122528	0.154370	-0.980386	-0.389984	0.900882	0.190591	0.912633	0.405688	-0.050182
03626														-9.495988	2.091144	-0.395935	-0.014350	0.013271	-0.051132	0.812500	-0.336670	0.402344	-0.122458	0.153927	-0.980464	-0.390228	0.900865	0.190169	0.912538	0.405892	-0.050251
03627														-9.520690	2.086487	-0.391030	-0.005128	0.014108	-0.053535	0.810547	-0.338623	0.404541	-0.122387	0.153447	-0.980549	-0.390383	0.900895	0.189707	0.912482	0.406007	-0.050355
03628														-9.524143	2.027060	-0.399193	0.007366	0.012425	-0.058132	0.806396	-0.336670	0.402344	-0.122284	0.152949	-0.980639	-0.390441	0.900975	0.189211	0.912471	0.406019	-0.050457
03629														-9.497575	2.052233	-0.392090	0.024377	0.012692	-0.058109	0.810303	-0.334473	0.402344	-0.122181	0.152433	-0.980732	-0.390332	0.901131	0.188689	0.912531	0.405866	-0.050602
03630														-9.568009	2.024099	-0.368132	0.037154	0.011372	-0.060594	0.808350	-0.338623	0.404541	-0.122059	0.151917	-0.980828	-0.390121	0.901335	0.188153	0.912638	0.405607	-0.050750
03631														-9.587145	2.026245	-0.341634	0.044348	0.010082	-0.062382	0.812500	-0.332520	0.397949	-0.121916	0.151372	-0.980930	-0.389835	0.901578	0.187578	0.912779	0.405270	-0.050907
03632														-9.586617	1.997056	-0.335501	0.038377	0.006709	-0.062170	0.810303	-0.334717	0.406738	-0.121742	0.150863	-0.981030	-0.389616	0.901787	0.187027	0.912895	0.404994	-0.051006
03633														-9.602811	2.021243	-0.396984	0.028914	0.004602	-0.060630	0.812256	-0.330566	0.404541	-0.121556	0.150357	-0.981130	-0.389469	0.901964	0.186478	0.912983	0.404788	-0.051080
03634														-9.627738	2.015283	-0.391798	0.026086	0.000490	-0.065096	0.808350	-0.330566	0.404541	-0.121319	0.149840	-0.981239	-0.389361	0.902131	0.185900	0.913061	0.404609	-0.051104
03635														-9.634730	2.001046	-0.414702	0.022643	0.000861	-0.062523	0.812256	-0.332520	0.408936	-0.121092	0.149332	-0.981344	-0.389273	0.902285	0.185335	0.913128	0.404453	-0.051129
03636														-9.632061	2.026128	-0.400673	0.019203	0.001233	-0.059951	0.808105	-0.326416	0.402100	-0.120885	0.148858	-0.981442	-0.389220	0.902415	0.184812	0.913178	0.404338	-0.051150
03637														-9.620920	2.004461	-0.451961	0.018426	0.003575	-0.052531	0.814453	-0.330566	0.404541	-0.120722	0.148428	-0.981527	-0.389158	0.902536	0.184347	0.913226	0.404224	-0.051194
03638														-9.654984	2.037626	-0.484708	0.022421	0.003924	-0.050884	0.812256	-0.330566	0.406738	-0.120566	0.148025	-0.981607	-0.389064	0.902667	0.183907	0.913287	0.404081	-0.051240
03639														-9.679567	2.033086	-0.480145	0.026246	0.015194	-0.043346	0.812256	-0.330566	0.402100	-0.120545	0.147631	-0.981669	-0.388920	0.902806	0.183529	0.913351	0.403914	-0.051412
03640														-9.656703	2.028696	-0.487930	0.031583	0.010000	-0.042029	0.816406	-0.332520	0.408936	-0.120482	0.147287	-0.981728	-0.388735	0.902957	0.183176	0.913438	0.403702	-0.051535
03641														-9.674371	2.077903	-0.557991	0.033034	0.015739	-0.034362	0.810303	-0.330566	0.406738	-0.120501	0.146972	-0.981773	-0.388518	0.903110	0.182882	0.913528	0.403474	-0.051725
03642														-9.631425	2.043176	-0.586698	0.040815	0.015194	-0.031930	0.812256	-0.324463	0.408691	-0.120532	0.146697	-0.981810	-0.388236	0.903283	0.182626	0.913644	0.403187	-0.051922
03643														-9.565709	2.040976	-0.526530	0.045756	0.023596	-0.028461	0.810303	-0.328613	0.404297	-0.120646	0.146404	-0.981840	-0.387896	0.903478	0.182383	0.913773	0.402856	-0.052212
03644														-9.617235	2.007336	-0.532258	0.040759	0.024335	-0.023554	0.808105	-0.322510	0.406494	-0.120788	0.146164	-0.981859	-0.387600	0.903642	0.182203	0.913880	0.402576	-0.052496
03645														-9.590011	1.959225	-0.525758	0.029287	0.029218	-0.013036	0.814209	-0.326416	0.402100	-0.121013	0.145988	-0.981857	-0.387391	0.903748	0.182120	0.913939	0.402402	-0.052811
03646														-9.662972	1.904200	-0.517719	0.011016	0.029619	-0.008632	0.814209	-0.326416	0.406494	-0.121253	0.145861	-0.981846	-0.387349	0.903770	0.182098	0.913925	0.402397	-0.053086
03647														-9.629853	1.942747	-0.490030	-0.004818	0.034668	-0.003121	0.814453	-0.330322	0.399902	-0.121567	0.145752	-0.981824	-0.387440	0.903725	0.182130	0.913844	0.402539	-0.053393
03648														-9.600410	1.950640	-0.476704	-0.017740	0.033803	-0.000271	0.812256	-0.328369	0.404297	-0.121876	0.145691	-0.981794	-0.387657	0.903616	0.182212	0.913711	0.402806	-0.053651
03649														-9.622047	2.005091	-0.467126	-0.024735	0.036324	0.002369	0.814209	-0.328369	0.406494	-0.122226	0.145625	-0.981761	-0.387923	0.903482	0.182309	0.913552	0.403130	-0.053937
03650														-9.594411	2.036414	-0.461733	-0.013389	0.037556	0.001861	0.808105	-0.326660	0.410889	-0.122581	0.145567	-0.981725	-0.388095	0.903387	0.182410	0.913431	0.403363	-0.054245
03651														-9.581696	2.020486	-0.515681	0.005457	0.033965	0.004563	0.812256	-0.328369	0.406494	-0.122918	0.145530	-0.981688	-0.388083	0.903372	0.182512	0.913391	0.403411	-0.054563
03652														-9.599525	2.029032	-0.490935	0.031655	0.031248	0.005111	0.812256	-0.328369	0.406494	-0.123235	0.145522	-0.981650	-0.387837	0.903456	0.182619	0.913453	0.403225	-0.054899
03653														-9.591768	2.014609	-0.464480	0.049069	0.030167	0.009772	0.808350	-0.328613	0.406494	-0.123557	0.145548	-0.981606	-0.387420	0.903609	0.182748	0.913586	0.402873	-0.055260
03654														-9.591419	2.015411	-0.468197	0.047130	0.027138	0.011631	0.808105	-0.326660	0.404297	-0.123857	0.145619	-0.981557	-0.387027	0.903744	0.182912	0.913712	0.402544	-0.055577
03655														-9.581777	1.978324	-0.433602	0.037700	0.028933	0.010274	0.808105	-0.326660	0.408691	-0.124170	0.145655	-0.981512	-0.386713	0.903850	0.183053	0.913802	0.402293	-0.055905
03656														-9.568977	1.962403	-0.487625	0.025487	0.030521	0.001572	0.814209	-0.326416	0.408691	-0.124461	0.145620	-0.981481	-0.386529	0.903914	0.183127	0.913841	0.402163	-0.056215
03657														-9.566944	1.939437	-0.483097	0.021772	0.030528	0.002025	0.814209	-0.326416	0.410889	-0.124756	0.145575	-0.981450	-0.386370	0.903968	0.183195	0.913868	0.402058	-0.056530
03658														-9.526731	1.954346	-0.528334	0.031326	0.026955	0.005882	0.810303	-0.328613	0.408691	-0.125030	0.145590	-0.981413	-0.386124	0.904051	0.183305	0.913934	0.401866	-0.056818
03659														-9.552101	1.900395	-0.532182	0.034388	0.027098	-0.000031	0.808350	-0.334717	0.406738	-0.125286	0.145540	-0.981388	-0.385853	0.904158	0.183346	0.914014	0.401642	-0.057121
03660														-9.535333	1.924615	-0.468152	0.030102	0.022454	-0.000915	0.808105	-0.326416	0.402100	-0.125497	0.145523	-0.981363	-0.385636	0.904239	0.183402	0.914076	0.401465	-0.057360
03661														-9.537160	1.947058	-0.478719	0.012341	0.024052	-0.008952	0.808105	-0.328613	0.408691	-0.125691	0.145404	-0.981356	-0.385578	0.904271	0.183367	0.914074	0.401436	-0.057594
03662														-9.535415	1.922979	-0.473186	-0.001283	0.024234	-0.012840	0.810059	-0.320557	0.408691	-0.125863	0.145269	-0.981354	-0.385659	0.904247	0.183317	0.914016	0.401541	-0.057787
03663														-9.521072	1.959400	-0.519607	-0.001428	0.026007	-0.015333	0.806152	-0.326660	0.415283	-0.126050	0.145085	-0.981357	-0.385734	0.904233	0.183228	0.913959	0.401639	-0.058015
03664														-9.495737	1.934513	-0.520132	0.016758	0.026482	-0.020932	0.804199	-0.324707	0.408691	-0.126220	0.144856	-0.981369	-0.385652	0.904298	0.183081	0.913970	0.401575	-0.058277
03665														-9.545292	1.955567	-0.519287	0.046279	0.020357	-0.021252	0.808105	-0.322510	0.413086	-0.126333	0.144641	-0.981386	-0.385298	0.904484	0.182906	0.914103	0.401234	-0.058536
03666														-9.494503	1.906949	-0.517814	0.066377	0.016027	-0.022940	0.808105	-0.328613	0.410889	-0.126399	0.144438	-0.981408	-0.384767	0.904749	0.182711	0.914318	0.400707	-0.058784
03667														-9.492988	1.881498	-0.512615	0.079546	0.013338	-0.020761	0.806152	-0.326660	0.415283	-0.126449	0.144256	-0.981428	-0.384108	0.905067	0.182521	0.914588	0.400054	-0.059035
03668														-9.542597	1.902386	-0.511500	0.068053	0.009961	-0.019889	0.810303	-0.328613	0.406494	-0.126478	0.144110	-0.981446	-0.383563	0.905330	0.182364	0.914813	0.399511	-0.059229
03669														-9.542890	1.900403	-0.513390	0.045740	0.006980	-0.015569	0.810303	-0.326660	0.413086	-0.126491	0.144001	-0.981460	-0.383207	0.905505	0.182244	0.914960	0.399154	-0.059356
03670														-9.601550	1.882570	-0.547696	0.028923	0.004873	-0.013170	0.812256	-0.326416	0.408691	-0.126490	0.143940	-0.981469	-0.383013	0.905601	0.182176	0.915042	0.398959	-0.059418
03671														-9.543433	1.897131	-0.515407	0.018386	0.001262	-0.020092	0.812012	-0.322510	0.419678	-0.126433	0.143813	-0.981495	-0.382913	0.905673	0.182028	0.915091	0.398842	-0.059439
03672														-9.531098	1.878368	-0.566410	0.016315	0.003918	-0.023614	0.808105	-0.328613	0.408691	-0.126387	0.143654	-0.981524	-0.382841	0.905737	0.181858	0.915128	0.398752	-0.059477
03673														-9.451263	1.915323	-0.547850	0.020161	0.002142	-0.021563	0.812012	-0.320313	0.410889	-0.126332	0.143509	-0.981553	-0.382727	0.905818	0.181696	0.915183	0.398621	-0.059509
03674														-9.541004	1.921913	-0.503102	0.018939	0.005916	-0.018764	0.812256	-0.328369	0.406494	-0.126316	0.143390	-0.981572	-0.382628	0.905885	0.181573	0.915227	0.398513	-0.059563
03675														-9.534055	1.895215	-0.576714	0.019009	0.005031	-0.017515	0.810059	-0.322510	0.419678	-0.126304	0.143271	-0.981591	-0.382519	0.905955	0.181451	0.915274	0.398395	-0.059622
03676														-9.601831	1.925350	-0.545869	0.018151	0.004387	-0.008473	0.808105	-0.324463	0.408691	-0.126320	0.143251	-0.981592	-0.382415	0.906003	0.181432	0.915315	0.398293	-0.059665
03677														-9.607375	1.916562	-0.568845	0.017084	0.002487	-0.000290	0.812256	-0.324463	0.415283	-0.126350	0.143298	-0.981581	-0.382302	0.906041	0.181480	0.915358	0.398190	-0.059695
03678														-9.609201	1.939748	-0.577237	0.019370	-0.002818	0.006981	0.814209	-0.326416	0.415283	-0.126357	0.143446	-0.981559	-0.382166	0.906072	0.181611	0.915414	0.398066	-0.059668
03679														-9.612701	1.908962	-0.591476	0.020798	-0.005336	0.005042	0.810059	-0.324463	0.413086	-0.126336	0.143572	-0.981543	-0.382012	0.906117	0.181709	0.915481	0.397918	-0.059629
03680														-9.588960	1.909082	-0.597005	0.023865	-0.009115	0.002024	0.805908	-0.320557	0.415283	-0.126269	0.143700	-0.981533	-0.381841	0.906173	0.181789	0.915562	0.397744	-0.059551
03681														-9.563392	1.885998	-0.594275	0.021729	-0.009487	0.000140	0.810059	-0.326660	0.419678	-0.126191	0.143799	-0.981528	-0.381685	0.906229	0.181839	0.915638	0.397581	-0.059473
03682														-9.594513	1.900756	-0.618353	0.020160	-0.009109	0.002470	0.810303	-0.328613	0.415283	-0.126135	0.143925	-0.981517	-0.381544	0.906272	0.181924	0.915704	0.397439	-0.059399
03683														-9.592604	1.878074	-0.609733	0.013040	-0.008720	0.005469	0.814209	-0.322510	0.408691	-0.126085	0.144069	-0.981502	-0.381460	0.906285	0.182031	0.915746	0.397356	-0.059312
03684														-9.561441	1.863926	-0.584399	-0.005466	-0.008684	0.007701	0.814209	-0.324463	0.410889	-0.126040	0.144248	-0.981482	-0.381552	0.906216	0.182185	0.915714	0.397449	-0.059181
03685														-9.621636	1.871323	-0.624511	-0.022056	-0.005628	0.008070	0.802002	-0.326660	0.413086	-0.126028	0.144403	-0.981461	-0.381787	0.906086	0.182338	0.915618	0.397688	-0.059061
03686														-9.594162	1.903563	-0.615152	-0.038365	-0.002197	0.010546	0.812256	-0.322510	0.413086	-0.126057	0.144582	-0.981430	-0.382176	0.905881	0.182540	0.915451	0.398090	-0.058937
03687														-9.612150	1.913304	-0.586375	-0.039449	0.003718	0.012951	0.808105	-0.324463	0.406494	-0.126149	0.144744	-0.981395	-0.382564	0.905675	0.182751	0.915277	0.398500	-0.058876
03688														-9.613780	1.937681	-0.593917	-0.034251	0.000308	0.011815	0.806152	-0.326660	0.413086	-0.126198	0.144922	-0.981362	-0.382911	0.905486	0.182958	0.915125	0.398863	-0.058778
03689														-9.587921	1.916046	-0.591364	-0.026004	0.005321	0.014354	0.808105	-0.326660	0.413086	-0.126310	0.145090	-0.981323	-0.383174	0.905331	0.183175	0.914999	0.399154	-0.058758
03690														-9.627748	1.902659	-0.549456	-0.015747	0.004179	0.006692	0.808105	-0.324463	0.410889	-0.126387	0.145208	-0.981296	-0.383360	0.905222	0.183326	0.914911	0.399359	-0.058742
03691														-9.596553	1.888343	-0.525165	-0.017888	0.007718	0.001921	0.806152	-0.324707	0.413086	-0.126474	0.145253	-0.981278	-0.383564	0.905117	0.183416	0.914813	0.399580	-0.058760
03692														-9.554534	1.880237	-0.559418	-0.025297	0.007733	0.002815	0.810303	-0.330566	0.408936	-0.126564	0.145319	-0.981256	-0.383839	0.904977	0.183530	0.914685	0.399873	-0.058759
03693														-9.601814	1.881121	-0.548060	-0.026513	0.007597	0.008501	0.806152	-0.326660	0.410889	-0.126675	0.145424	-0.981226	-0.384114	0.904828	0.183690	0.914554	0.400172	-0.058759
03694														-9.548726	1.889947	-0.537525	-0.023306	0.005960	0.005089	0.812256	-0.326416	0.413086	-0.126756	0.145524	-0.981201	-0.384374	0.904689	0.183832	0.914434	0.400450	-0.058739
03695														-9.572279	1.890965	-0.531387	-0.017811	-0.004898	0.011829	0.810303	-0.332520	0.406738	-0.126766	0.145710	-0.981172	-0.384565	0.904570	0.184019	0.914352	0.400652	-0.058633
03696														-9.599531	1.938156	-0.540989	-0.014039	-0.001880	0.009745	0.812256	-0.324463	0.415283	-0.126791	0.145883	-0.981143	-0.384734	0.904461	0.184200	0.914278	0.400834	-0.058551
03697														-9.615726	1.924417	-0.504452	-0.017889	-0.000102	0.007696	0.806152	-0.328613	0.408691	-0.126828	0.146013	-0.981119	-0.384931	0.904348	0.184347	0.914190	0.401043	-0.058492
03698														-9.615617	1.925077	-0.504021	-0.022162	-0.000837	0.003928	0.812256	-0.326416	0.410889	-0.126844	0.146122	-0.981101	-0.385176	0.904218	0.184470	0.914084	0.401295	-0.058412
03699														-9.604754	1.931654	-0.562020	-0.030428	0.001976	-0.004385	0.808105	-0.328613	0.410889	-0.126854	0.146134	-0.981098	-0.385503	0.904072	0.184506	0.913945	0.401621	-0.058350
03700														-9.551953	1.939168	-0.550878	-0.032923	0.002123	-0.009624	0.804199	-0.326660	0.402100	-0.126842	0.146111	-0.981103	-0.385864	0.903918	0.184503	0.913794	0.401975	-0.058276
03701														-9.575869	1.938358	-0.544779	-0.027510	0.003882	-0.012789	0.814453	-0.334473	0.411133	-0.126837	0.146039	-0.981114	-0.386175	0.903795	0.184454	0.913664	0.402277	-0.058238
03702														-9.546863	1.945497	-0.528146	-0.014111	0.002456	-0.009750	0.808105	-0.326660	0.406494	-0.126824	0.146021	-0.981119	-0.386371	0.903713	0.184445	0.913583	0.402467	-0.058194
03703														-9.576194	1.936845	-0.544445	-0.008120	-0.002868	-0.002934	0.810303	-0.328613	0.410889	-0.126795	0.146065	-0.981116	-0.386492	0.903654	0.184481	0.913536	0.402584	-0.058125
03704														-9.587077	1.930354	-0.485551	-0.009336	-0.003010	0.002752	0.806152	-0.332764	0.413330	-0.126781	0.146176	-0.981101	-0.386623	0.903577	0.184586	0.913482	0.402718	-0.058041
03705														-9.623609	1.937410	-0.531715	-0.009616	-0.007294	0.003526	0.810303	-0.330566	0.415527	-0.126737	0.146297	-0.981089	-0.386749	0.903502	0.184687	0.913435	0.402842	-0.057927
03706														-9.616204	1.923008	-0.500717	-0.025953	0.000047	0.003129	0.808105	-0.328613	0.408691	-0.126769	0.146399	-0.981069	-0.387033	0.903355	0.184813	0.913310	0.403135	-0.057856
03707														-9.581456	1.939655	-0.461246	-0.039289	0.000586	0.001338	0.806152	-0.326660	0.417480	-0.126788	0.146468	-0.981057	-0.387434	0.903163	0.184909	0.913137	0.403539	-0.057764
03708														-9.590701	1.977582	-0.498721	-0.051132	0.001639	-0.004029	0.812256	-0.328613	0.410889	-0.126802	0.146494	-0.981051	-0.387951	0.902928	0.184971	0.912916	0.404055	-0.057660
03709														-9.567094	1.977182	-0.503725	-0.047787	0.002149	-0.007830	0.806396	-0.334717	0.406738	-0.126800	0.146473	-0.981054	-0.388441	0.902716	0.184983	0.912708	0.404537	-0.057568
03710														-9.517928	1.953549	-0.506750	-0.040092	0.002504	-0.006615	0.810303	-0.326660	0.413086	-0.126805	0.146481	-0.981052	-0.388867	0.902524	0.185019	0.912525	0.404960	-0.057483
03711														-9.543580	1.976455	-0.508289	-0.028394	-0.000694	-0.000862	0.810303	-0.328613	0.404297	-0.126804	0.146535	-0.981044	-0.389170	0.902380	0.185087	0.912396	0.405263	-0.057398
03712														-9.569124	1.999945	-0.509577	-0.018616	-0.006919	0.006744	0.812256	-0.328369	0.402100	-0.126770	0.146695	-0.981025	-0.389378	0.902260	0.185233	0.912313	0.405471	-0.057260
03713														-9.539820	2.008713	-0.492027	-0.014907	-0.006925	0.006297	0.806152	-0.326660	0.402100	-0.126740	0.146839	-0.981007	-0.389549	0.902160	0.185364	0.912244	0.405643	-0.057139
03714														-9.543314	1.978455	-0.505482	-0.006986	-0.009231	0.011249	0.810303	-0.326416	0.404297	-0.126691	0.147053	-0.980982	-0.389647	0.902079	0.185547	0.912209	0.405744	-0.056986
03715														-9.566837	1.979729	-0.498578	-0.010626	-0.010113	0.012943	0.808350	-0.328613	0.406494	-0.126658	0.147270	-0.980953	-0.389771	0.901986	0.185741	0.912160	0.405872	-0.056842
03716														-9.584841	1.989167	-0.469429	-0.015986	-0.004933	0.011600	0.808105	-0.328613	0.410889	-0.126656	0.147467	-0.980924	-0.389948	0.901870	0.185932	0.912085	0.406059	-0.056723
03717														-9.560942	1.990156	-0.474532	-0.016130	-0.003158	0.009108	0.808105	-0.328613	0.410889	-0.126671	0.147621	-0.980899	-0.390127	0.901760	0.186091	0.912006	0.406247	-0.056636
03718														-9.586382	2.014020	-0.476054	-0.012776	-0.002642	0.005306	0.806152	-0.330566	0.411133	-0.126679	0.147747	-0.980879	-0.390281	0.901667	0.186220	0.911939	0.406408	-0.056559
03719														-9.566195	1.983550	-0.495694	-0.012561	-0.005306	0.009044	0.806396	-0.332764	0.411133	-0.126674	0.147909	-0.980855	-0.390427	0.901571	0.186376	0.911878	0.406561	-0.056458
03720														-9.555050	2.000598	-0.450058	-0.001921	-0.010864	0.007604	0.814209	-0.326416	0.406494	-0.126621	0.148094	-0.980834	-0.390483	0.901516	0.186527	0.911861	0.406617	-0.056323
03721														-9.589638	1.985366	-0.488132	-0.001071	-0.005847	0.011054	0.808350	-0.334717	0.406738	-0.126620	0.148276	-0.980807	-0.390521	0.901464	0.186697	0.911845	0.406665	-0.056238
03722														-9.558358	1.971499	-0.463001	0.006353	-0.009779	0.013032	0.810303	-0.332520	0.406738	-0.126583	0.148506	-0.980777	-0.390494	0.901435	0.186891	0.911861	0.406645	-0.056115
03723														-9.581850	1.972817	-0.456471	0.010277	-0.008532	0.013445	0.806152	-0.332764	0.413330	-0.126566	0.148721	-0.980746	-0.390426	0.901426	0.187078	0.911893	0.406587	-0.056026
03724														-9.594576	1.980545	-0.508539	0.017059	-0.008391	0.007086	0.810303	-0.330566	0.404541	-0.126531	0.148892	-0.980725	-0.390310	0.901448	0.187213	0.911947	0.406475	-0.055947
03725														-9.557860	1.974298	-0.461361	0.022908	-0.008036	0.008520	0.808350	-0.336670	0.406738	-0.126499	0.149061	-0.980703	-0.390134	0.901498	0.187345	0.912027	0.406304	-0.055885
03726														-9.579620	1.951937	-0.447346	0.028188	-0.008414	0.005739	0.812256	-0.330566	0.411133	-0.126450	0.149224	-0.980685	-0.389921	0.901565	0.187461	0.912125	0.406094	-0.055817
03727														-9.577695	1.929317	-0.439395	0.034106	-0.005030	0.005543	0.810303	-0.332520	0.400146	-0.126434	0.149354	-0.980667	-0.389646	0.901664	0.187557	0.912245	0.405826	-0.055806
03728														-9.553936	1.929469	-0.445213	0.033462	-0.008794	0.002959	0.810303	-0.332520	0.408936	-0.126366	0.149490	-0.980655	-0.389385	0.901760	0.187639	0.912366	0.405563	-0.055742
03729														-9.570309	1.914550	-0.408838	0.030750	-0.009893	-0.003140	0.808350	-0.330566	0.406738	-0.126272	0.149561	-0.980656	-0.389151	0.901858	0.187652	0.912478	0.405319	-0.055678
03730														-9.588884	1.912512	-0.483645	0.028821	-0.005087	-0.007040	0.812256	-0.326416	0.408691	-0.126205	0.149591	-0.980660	-0.388945	0.901950	0.187639	0.912576	0.405104	-0.055648
03731														-9.614612	1.934761	-0.485773	0.030458	-0.006347	-0.008126	0.810303	-0.328613	0.402100	-0.126124	0.149603	-0.980669	-0.388720	0.902054	0.187603	0.912683	0.404867	-0.055617
03732														-9.612934	1.988187	-0.479310	0.036444	-0.007765	-0.004198	0.808350	-0.330566	0.411133	-0.126033	0.149665	-0.980671	-0.388436	0.902176	0.187606	0.912816	0.404573	-0.055568
03733														-9.647855	1.971292	-0.518015	0.043499	-0.011180	-0.005570	0.810303	-0.334717	0.411133	-0.125918	0.149719	-0.980678	-0.388089	0.902329	0.187588	0.912980	0.404211	-0.055515
03734														-9.585810	1.940774	-0.468732	0.047199	-0.015104	-0.003137	0.810303	-0.330566	0.408936	-0.125782	0.149824	-0.980679	-0.387710	0.902488	0.187606	0.913159	0.403817	-0.055429
03735														-9.545933	1.954830	-0.510190	0.047191	-0.015105	-0.003136	0.812256	-0.332520	0.404541	-0.125641	0.149916	-0.980683	-0.387326	0.902652	0.187610	0.913342	0.403416	-0.055344
03736														-9.536788	1.916606	-0.471364	0.039984	-0.013833	-0.001375	0.808350	-0.330566	0.411133	-0.125512	0.150034	-0.980682	-0.387012	0.902779	0.187647	0.913493	0.403087	-0.055245
03737														-9.491346	1.939019	-0.490403	0.030430	-0.014182	-0.002356	0.814209	-0.328369	0.406494	-0.125382	0.150129	-0.980684	-0.386780	0.902874	0.187668	0.913609	0.402839	-0.055138
03738														-9.517046	1.884231	-0.490296	0.020662	-0.007963	-0.009965	0.808350	-0.330566	0.411133	-0.125277	0.150141	-0.980695	-0.386648	0.902939	0.187629	0.913679	0.402690	-0.055065
03739														-9.533610	1.945673	-0.455497	0.018736	-0.007074	-0.010988	0.808105	-0.328613	0.410889	-0.125178	0.150130	-0.980710	-0.386534	0.903000	0.187571	0.913741	0.402558	-0.055005
03740														-9.512063	1.967260	-0.468907	0.021797	-0.010853	-0.014014	0.810303	-0.330566	0.411133	-0.125038	0.150116	-0.980730	-0.386398	0.903074	0.187493	0.913817	0.402395	-0.054914
03741														-9.556079	1.997392	-0.442398	0.024146	-0.009229	-0.011274	0.810303	-0.328613	0.406494	-0.124919	0.150110	-0.980746	-0.386234	0.903157	0.187430	0.913903	0.402211	-0.054843
03742														-9.563771	2.010998	-0.472214	0.027778	-0.012264	-0.010086	0.812256	-0.328369	0.406494	-0.124775	0.150139	-0.980760	-0.386039	0.903250	0.187387	0.914005	0.401993	-0.054743
03743														-9.635142	2.010218	-0.453782	0.036607	-0.018711	-0.010043	0.810303	-0.328613	0.406494	-0.124574	0.150183	-0.980778	-0.385760	0.903381	0.187329	0.914150	0.401681	-0.054603
03744														-9.646543	1.992652	-0.497129	0.053195	-0.025686	-0.007547	0.810303	-0.328613	0.410889	-0.124311	0.150290	-0.980795	-0.385329	0.903572	0.187295	0.914368	0.401212	-0.054413
03745														-9.623082	1.991782	-0.501483	0.068423	-0.031027	-0.001859	0.808105	-0.326660	0.408691	-0.124029	0.150457	-0.980806	-0.384749	0.903818	0.187301	0.914650	0.400594	-0.054212
03746														-9.621353	1.968546	-0.491394	0.081291	-0.041903	0.003983	0.812500	-0.334473	0.408936	-0.123671	0.150729	-0.980809	-0.384044	0.904104	0.187365	0.914995	0.399845	-0.053925
03747														-9.619595	1.945563	-0.480776	0.077347	-0.043156	0.003583	0.804199	-0.332764	0.408936	-0.123298	0.150993	-0.980815	-0.383375	0.904377	0.187419	0.915326	0.399129	-0.053621
03748														-9.625270	1.937525	-0.500306	0.064952	-0.042375	0.009386	0.808105	-0.326660	0.410889	-0.122962	0.151325	-0.980806	-0.382823	0.904582	0.187558	0.915602	0.398537	-0.053299
03749														-9.634566	1.898757	-0.533817	0.050645	-0.040702	0.014168	0.808350	-0.330566	0.411133	-0.122652	0.151675	-0.980791	-0.382385	0.904731	0.187731	0.915827	0.398065	-0.052969
03750														-9.587082	1.899926	-0.542578	0.032722	-0.039897	0.020656	0.812256	-0.332520	0.408936	-0.122382	0.152089	-0.980761	-0.382106	0.904796	0.187989	0.915979	0.397761	-0.052616
03751														-9.566946	1.947809	-0.561454	0.016654	-0.039093	0.026920	0.812256	-0.326416	0.404297	-0.122135	0.152548	-0.980720	-0.381964	0.904790	0.188305	0.916071	0.397598	-0.052238
03752														-9.590329	1.950378	-0.552182	0.001786	-0.034262	0.024599	0.812500	-0.336670	0.402344	-0.121920	0.152980	-0.980680	-0.381965	0.904724	0.188618	0.916099	0.397582	-0.051871
03753														-9.602403	1.969670	-0.498482	-0.011014	-0.032079	0.025803	0.810303	-0.332520	0.406738	-0.121733	0.153400	-0.980637	-0.382078	0.904610	0.188937	0.916077	0.397680	-0.051510
03754														-9.585930	1.986529	-0.531689	-0.007251	-0.029070	0.023700	0.806152	-0.328613	0.408691	-0.121566	0.153812	-0.980594	-0.382171	0.904504	0.189255	0.916061	0.397761	-0.051174
03755														-9.585641	1.988637	-0.529018	0.000139	-0.025192	0.019886	0.808350	-0.330566	0.402100	-0.121419	0.154151	-0.980558	-0.382189	0.904443	0.189510	0.916073	0.397769	-0.050902
03756														-9.579743	1.998648	-0.504612	0.020394	-0.024385	0.016113	0.812256	-0.332520	0.413330	-0.121267	0.154466	-0.980528	-0.382030	0.904464	0.189731	0.916159	0.397599	-0.050671
03757														-9.583350	1.968697	-0.517093	0.035538	-0.021042	0.014735	0.806152	-0.330566	0.406738	-0.121138	0.154742	-0.980500	-0.381730	0.904551	0.189918	0.916301	0.397293	-0.050506
03758														-9.591721	1.940916	-0.449193	0.043141	-0.019812	0.014671	0.812256	-0.328369	0.399902	-0.121032	0.155024	-0.980469	-0.381364	0.904664	0.190115	0.916467	0.396926	-0.050373
03759														-9.585825	1.950605	-0.425642	0.041063	-0.024969	0.016948	0.816406	-0.332520	0.408936	-0.120876	0.155336	-0.980439	-0.381011	0.904770	0.190321	0.916635	0.396563	-0.050180
03760														-9.589443	1.920609	-0.438352	0.031897	-0.018008	0.013549	0.816406	-0.328369	0.410889	-0.120764	0.155603	-0.980410	-0.380749	0.904841	0.190509	0.916758	0.396297	-0.050027
03761														-9.596887	1.936106	-0.467380	0.023485	-0.021253	0.008554	0.814209	-0.328369	0.406494	-0.120610	0.155824	-0.980394	-0.380567	0.904889	0.190641	0.916854	0.396099	-0.049838
03762														-9.561690	1.953641	-0.427329	0.014828	-0.020457	0.013917	0.814453	-0.330566	0.402100	-0.120484	0.156096	-0.980366	-0.380456	0.904895	0.190836	0.916917	0.395979	-0.049637
03763														-9.588987	2.000610	-0.435881	0.009968	-0.021956	0.005959	0.812500	-0.332520	0.400146	-0.120313	0.156296	-0.980355	-0.380401	0.904894	0.190950	0.916962	0.395902	-0.049415
03764														-9.543685	1.946156	-0.451811	0.010938	-0.023102	-0.000586	0.814209	-0.326416	0.404297	-0.120097	0.156459	-0.980356	-0.380351	0.904902	0.191012	0.917011	0.395819	-0.049167
03765														-9.502273	1.936949	-0.483822	0.013458	-0.028537	-0.006564	0.810303	-0.332520	0.408936	-0.119819	0.156572	-0.980372	-0.380279	0.904934	0.191001	0.917078	0.395700	-0.048887
03766														-9.516654	1.976006	-0.439076	0.016636	-0.030193	-0.009984	0.806152	-0.330566	0.406738	-0.119513	0.156670	-0.980393	-0.380183	0.904983	0.190964	0.917157	0.395551	-0.048594
03767														-9.538742	1.952265	-0.422703	0.022907	-0.023417	-0.009771	0.812256	-0.330566	0.402100	-0.119269	0.156733	-0.980413	-0.380028	0.905058	0.190918	0.917253	0.395355	-0.048382
03768														-9.592097	1.943152	-0.431133	0.028369	-0.022562	-0.011718	0.810303	-0.330566	0.406738	-0.119028	0.156789	-0.980433	-0.379829	0.905153	0.190862	0.917367	0.395115	-0.048185
03769														-9.647353	1.956863	-0.447874	0.022974	-0.020398	-0.011421	0.810303	-0.328613	0.397705	-0.118805	0.156825	-0.980455	-0.379676	0.905230	0.190800	0.917459	0.394923	-0.048003
03770														-9.620215	1.986553	-0.438349	0.035228	-0.024236	-0.015601	0.814209	-0.326416	0.399902	-0.118528	0.156853	-0.980484	-0.379418	0.905359	0.190701	0.917602	0.394617	-0.047798
03771														-9.653911	1.945202	-0.466767	0.042160	-0.026791	-0.018233	0.816406	-0.328369	0.402100	-0.118221	0.156853	-0.980521	-0.379097	0.905523	0.190563	0.917774	0.394241	-0.047590
03772														-9.609011	1.965672	-0.485393	0.043922	-0.025921	-0.019716	0.812256	-0.330566	0.408936	-0.117904	0.156847	-0.980560	-0.378761	0.905694	0.190414	0.917954	0.393849	-0.047378
03773														-9.611427	1.909440	-0.489469	0.040517	-0.025525	-0.017146	0.814209	-0.328369	0.404297	-0.117613	0.156851	-0.980594	-0.378453	0.905850	0.190288	0.918118	0.393489	-0.047179
03774														-9.611823	1.907886	-0.487755	0.037482	-0.025626	-0.011219	0.812500	-0.332520	0.402344	-0.117348	0.156920	-0.980615	-0.378168	0.905981	0.190231	0.918269	0.393160	-0.046973
03775														-9.594287	1.897954	-0.514208	0.024418	-0.023815	-0.012093	0.812256	-0.328369	0.397705	-0.117092	0.156963	-0.980639	-0.378001	0.906065	0.190162	0.918371	0.392949	-0.046760
03776														-9.620182	1.919897	-0.514598	0.011875	-0.020360	-0.010012	0.810303	-0.328613	0.404297	-0.116869	0.157030	-0.980654	-0.377955	0.906090	0.190133	0.918418	0.392864	-0.046544
03777														-9.636428	1.904589	-0.476335	-0.010552	-0.016755	-0.012223	0.816406	-0.330322	0.406738	-0.116677	0.157044	-0.980675	-0.378110	0.906037	0.190078	0.918379	0.392981	-0.046334
03778														-9.627177	1.943065	-0.438264	-0.028114	-0.016959	-0.017684	0.812256	-0.332520	0.404541	-0.116467	0.157021	-0.980704	-0.378435	0.905920	0.189990	0.918271	0.393260	-0.046087
03779														-9.617448	1.947281	-0.494879	-0.038965	-0.011757	-0.018339	0.812256	-0.328369	0.406494	-0.116297	0.156961	-0.980733	-0.378858	0.905764	0.189888	0.918118	0.393643	-0.045872
03780														-9.612106	1.954024	-0.470926	-0.037277	-0.010007	-0.021078	0.812256	-0.326416	0.406494	-0.116141	0.156881	-0.980765	-0.379273	0.905615	0.189773	0.917967	0.394018	-0.045678
03781														-9.606815	1.960432	-0.447253	-0.022600	-0.009182	-0.024202	0.818359	-0.330322	0.402344	-0.115973	0.156758	-0.980804	-0.379552	0.905533	0.189607	0.917873	0.394256	-0.045520
03782														-9.595232	1.941209	-0.496495	-0.001863	-0.010630	-0.022169	0.812500	-0.334473	0.402344	-0.115801	0.156668	-0.980839	-0.379639	0.905527	0.189459	0.917858	0.394305	-0.045383
03783														-9.585917	1.902153	-0.456865	0.012241	-0.013046	-0.012487	0.814453	-0.330566	0.402100	-0.115642	0.156665	-0.980858	-0.379586	0.905564	0.189392	0.917901	0.394221	-0.045253
03784														-9.600274	1.940755	-0.413725	0.017698	-0.012185	-0.014442	0.812256	-0.330566	0.402100	-0.115487	0.156660	-0.980877	-0.379492	0.905618	0.189320	0.917959	0.394099	-0.045136
03785														-9.594786	1.947958	-0.390548	0.006780	-0.013908	-0.010530	0.812256	-0.326416	0.402100	-0.115327	0.156679	-0.980893	-0.379486	0.905630	0.189274	0.917982	0.394063	-0.044987
03786														-9.624397	1.938983	-0.405330	-0.014612	-0.010931	-0.003911	0.812256	-0.326416	0.402100	-0.115221	0.156758	-0.980893	-0.379671	0.905544	0.189314	0.917918	0.394230	-0.044822
03787														-9.622672	1.993034	-0.398019	-0.033282	-0.012134	-0.002414	0.816406	-0.326416	0.402100	-0.115109	0.156843	-0.980893	-0.380023	0.905386	0.189366	0.917787	0.394560	-0.044614
03788														-9.656039	1.953175	-0.425977	-0.041409	-0.015016	-0.005280	0.816406	-0.330322	0.399902	-0.114957	0.156922	-0.980898	-0.380452	0.905198	0.189399	0.917628	0.394957	-0.044357
03789														-9.623067	1.991990	-0.393673	-0.040842	-0.015670	-0.015180	0.816406	-0.330566	0.411133	-0.114763	0.156906	-0.980923	-0.380888	0.905030	0.189329	0.917471	0.395350	-0.044101
03790														-9.629333	1.981764	-0.413446	-0.034886	-0.018479	-0.025385	0.812256	-0.326416	0.397705	-0.114513	0.156819	-0.980966	-0.381283	0.904897	0.189167	0.917339	0.395688	-0.043830
03791														-9.598539	1.964574	-0.386785	-0.028110	-0.019263	-0.030532	0.814209	-0.326416	0.395508	-0.114228	0.156678	-0.981022	-0.381620	0.904803	0.188940	0.917234	0.395960	-0.043562
03792														-9.601262	1.984416	-0.392771	-0.019120	-0.016647	-0.035464	0.812256	-0.326416	0.399902	-0.113938	0.156494	-0.981085	-0.381880	0.904750	0.188668	0.917162	0.396154	-0.043323
03793														-9.560547	1.972496	-0.425576	-0.018390	-0.009843	-0.034560	0.814209	-0.326416	0.399902	-0.113724	0.156280	-0.981144	-0.382132	0.904700	0.188397	0.917083	0.396352	-0.043166
03794														-9.561212	1.969617	-0.423956	-0.014383	-0.017276	-0.027122	0.816406	-0.326416	0.404297	-0.113468	0.156171	-0.981191	-0.382338	0.904653	0.188204	0.917029	0.396502	-0.042939
03795														-9.520288	1.958769	-0.456866	-0.003666	-0.011491	-0.020687	0.814209	-0.326416	0.399902	-0.113292	0.156089	-0.981224	-0.382440	0.904639	0.188063	0.917009	0.396565	-0.042794
03796														-9.530635	1.951260	-0.397234	0.010836	-0.010494	-0.010571	0.816406	-0.328369	0.402100	-0.113165	0.156101	-0.981237	-0.382394	0.904667	0.188021	0.917043	0.396497	-0.042685
03797														-9.591680	1.956973	-0.436606	0.017587	-0.012885	0.000037	0.816406	-0.330322	0.395508	-0.113056	0.156212	-0.981232	-0.382277	0.904706	0.188074	0.917106	0.396365	-0.042566
03798														-9.615291	1.957339	-0.429572	0.012953	-0.011732	0.007055	0.818359	-0.328369	0.395508	-0.112981	0.156396	-0.981211	-0.382197	0.904711	0.188210	0.917148	0.396281	-0.042441
03799														-9.640800	1.981313	-0.430593	-0.003054	-0.010937	0.013390	0.814453	-0.332520	0.402344	-0.112940	0.156620	-0.981180	-0.382254	0.904647	0.188403	0.917129	0.396339	-0.042302
03800														-9.636831	2.013784	-0.415607	-0.021755	-0.004357	0.009096	0.812256	-0.326416	0.399902	-0.112943	0.156794	-0.981152	-0.382492	0.904510	0.188575	0.917030	0.396581	-0.042185
03801														-9.676045	2.000587	-0.371919	-0.040215	-0.004320	0.011463	0.814209	-0.326416	0.393311	-0.112955	0.156974	-0.981122	-0.382892	0.904302	0.188765	0.916861	0.396986	-0.042042
03802														-9.662165	2.038745	-0.415626	-0.044537	0.002732	0.001925	0.818359	-0.326416	0.397705	-0.112990	0.157050	-0.981106	-0.383342	0.904089	0.188870	0.916669	0.397439	-0.041949
03803														-9.648468	2.032871	-0.362683	-0.035167	0.004855	0.000344	0.814209	-0.326416	0.399902	-0.113044	0.157093	-0.981093	-0.383708	0.903918	0.188948	0.916509	0.397812	-0.041904
03804														-9.654269	2.024595	-0.384606	-0.026084	0.002694	-0.000440	0.814209	-0.328369	0.402100	-0.113070	0.157145	-0.981081	-0.383988	0.903784	0.189019	0.916389	0.398096	-0.041849
03805														-9.634490	1.992915	-0.404671	-0.010070	0.001904	-0.006777	0.812256	-0.328369	0.402100	-0.113070	0.157136	-0.981083	-0.384132	0.903723	0.189017	0.916328	0.398238	-0.041823
03806														-9.581540	2.000537	-0.394993	0.003381	0.003519	-0.005477	0.808350	-0.330566	0.399902	-0.113096	0.157138	-0.981079	-0.384150	0.903713	0.189030	0.916318	0.398260	-0.041842
03807														-9.573781	1.985527	-0.364972	0.010778	-0.000400	-0.003523	0.814209	-0.326416	0.402100	-0.113087	0.157168	-0.981076	-0.384099	0.903730	0.189051	0.916340	0.398210	-0.041832
03808														-9.528318	1.930856	-0.383474	0.013148	0.001237	-0.000803	0.820557	-0.330322	0.399902	-0.113110	0.157223	-0.981064	-0.384023	0.903750	0.189108	0.916369	0.398141	-0.041846
03809														-9.553993	1.953684	-0.385985	0.018832	0.003368	-0.001911	0.812256	-0.328369	0.393311	-0.113142	0.157251	-0.981056	-0.383896	0.903797	0.189141	0.916418	0.398024	-0.041889
03810														-9.554037	1.953401	-0.386324	0.016247	-0.003434	-0.002582	0.814453	-0.334473	0.402344	-0.113103	0.157314	-0.981050	-0.383796	0.903832	0.189179	0.916465	0.397920	-0.041849
03811														-9.569892	1.938604	-0.349831	0.006860	-0.001654	-0.003902	0.812500	-0.332520	0.397949	-0.113081	0.157345	-0.981048	-0.383781	0.903834	0.189198	0.916474	0.397903	-0.041820
03812														-9.577825	1.952707	-0.380103	-0.004373	0.000128	-0.004985	0.812256	-0.328369	0.397705	-0.113079	0.157375	-0.981043	-0.383877	0.903787	0.189229	0.916434	0.397998	-0.041787
03813														-9.575906	1.929234	-0.371820	-0.013984	0.000647	-0.007157	0.818604	-0.334473	0.397949	-0.113066	0.157367	-0.981046	-0.384058	0.903711	0.189225	0.916360	0.398173	-0.041741
03814														-9.625383	1.951436	-0.367439	-0.014667	0.000768	-0.012615	0.814209	-0.326416	0.399902	-0.113032	0.157324	-0.981057	-0.384254	0.903637	0.189181	0.916282	0.398359	-0.041687
03815														-9.635507	1.987751	-0.405864	-0.012454	0.004167	-0.012397	0.814453	-0.332520	0.400146	-0.113031	0.157255	-0.981068	-0.384426	0.903575	0.189124	0.916210	0.398525	-0.041679
03816														-9.651577	1.971838	-0.369517	-0.005896	0.002136	-0.018403	0.818604	-0.336426	0.400146	-0.112991	0.157150	-0.981090	-0.384545	0.903547	0.189016	0.916165	0.398630	-0.041661
03817														-9.608716	2.016089	-0.398173	-0.001443	0.001126	-0.012167	0.818359	-0.332275	0.397949	-0.112963	0.157095	-0.981102	-0.384616	0.903529	0.188958	0.916139	0.398693	-0.041644
03818														-9.599087	1.977256	-0.360034	-0.001536	0.005912	-0.016318	0.814453	-0.328369	0.391113	-0.112964	0.157001	-0.981117	-0.384699	0.903511	0.188876	0.916104	0.398771	-0.041667
03819														-9.552122	1.975640	-0.372814	-0.003304	0.005033	-0.014830	0.816406	-0.334473	0.395752	-0.112962	0.156906	-0.981132	-0.384790	0.903490	0.188792	0.916066	0.398856	-0.041684
03820														-9.581832	1.965855	-0.389218	-0.001682	0.003770	-0.015919	0.816406	-0.332520	0.404541	-0.112934	0.156825	-0.981148	-0.384873	0.903472	0.188710	0.916034	0.398929	-0.041675
03821														-9.540656	1.955887	-0.424104	0.004158	0.004142	-0.014525	0.812500	-0.332520	0.402344	-0.112925	0.156737	-0.981163	-0.384895	0.903480	0.188626	0.916026	0.398946	-0.041698
03822														-9.527227	1.948566	-0.372117	0.008534	0.004015	-0.009539	0.816406	-0.326416	0.402100	-0.112947	0.156706	-0.981166	-0.384875	0.903493	0.188605	0.916032	0.398928	-0.041734
03823														-9.521514	1.956462	-0.350544	0.011666	0.004651	-0.000111	0.816406	-0.334473	0.397949	-0.112997	0.156746	-0.981154	-0.384812	0.903508	0.188659	0.916052	0.398878	-0.041776
03824														-9.588138	1.954544	-0.413418	0.013908	0.000243	0.005908	0.812500	-0.334473	0.402344	-0.113033	0.156869	-0.981130	-0.384723	0.903520	0.188783	0.916085	0.398802	-0.041776
03825														-9.629380	1.964163	-0.378849	-0.001931	-0.004643	0.017643	0.816406	-0.326416	0.397705	-0.113066	0.157107	-0.981088	-0.384765	0.903454	0.189017	0.916063	0.398859	-0.041701
03826														-9.656830	2.011611	-0.388415	-0.006228	-0.005398	0.013909	0.814453	-0.328369	0.397705	-0.113083	0.157325	-0.981051	-0.384851	0.903373	0.189229	0.916025	0.398957	-0.041609
03827														-9.652825	2.044346	-0.373548	-0.017530	-0.006644	0.014475	0.818359	-0.326416	0.399902	-0.113086	0.157542	-0.981016	-0.385039	0.903249	0.189438	0.915946	0.399153	-0.041485
03828														-9.624844	1.999759	-0.362605	-0.019392	-0.002738	0.011811	0.812500	-0.334473	0.400146	-0.113111	0.157726	-0.980983	-0.385244	0.903122	0.189627	0.915857	0.399367	-0.041390
03829														-9.579418	2.023743	-0.382370	-0.025012	-0.001849	0.011270	0.820313	-0.324219	0.397705	-0.113146	0.157894	-0.980952	-0.385504	0.902973	0.189808	0.915743	0.399637	-0.041299
03830														-9.577236	2.001566	-0.373617	-0.018612	-0.002115	0.002763	0.816406	-0.326416	0.399902	-0.113144	0.157996	-0.980936	-0.385713	0.902862	0.189910	0.915655	0.399847	-0.041212
03831														-9.575213	1.978583	-0.365124	-0.013689	0.001024	-0.005053	0.814209	-0.326416	0.397705	-0.113142	0.158006	-0.980935	-0.385888	0.902784	0.189926	0.915581	0.400020	-0.041170
03832														-9.522274	1.986283	-0.355161	-0.008227	0.001898	-0.007013	0.816406	-0.328369	0.393311	-0.113137	0.157998	-0.980937	-0.386009	0.902733	0.189923	0.915531	0.400138	-0.041144
03833														-9.526009	1.955063	-0.369213	-0.004557	0.000262	0.008271	0.812256	-0.328369	0.399902	-0.113180	0.158131	-0.980910	-0.386085	0.902670	0.190066	0.915494	0.400227	-0.041112
03834														-9.549408	1.956274	-0.362883	0.003526	-0.003779	0.015681	0.816406	-0.330322	0.397705	-0.113209	0.158356	-0.980871	-0.386076	0.902628	0.190284	0.915494	0.400233	-0.041048
03835														-9.602115	1.949850	-0.372249	0.002071	-0.008185	0.022171	0.816406	-0.332520	0.400146	-0.113228	0.158648	-0.980821	-0.386076	0.902569	0.190561	0.915491	0.400249	-0.040946
03836														-9.645148	1.983665	-0.345039	0.000680	-0.009568	0.027013	0.816406	-0.330322	0.399902	-0.113253	0.159000	-0.980761	-0.386083	0.902496	0.190895	0.915486	0.400274	-0.040824
03837														-9.638840	1.994642	-0.321620	-0.009150	-0.014215	0.026888	0.814453	-0.332520	0.402344	-0.113236	0.159359	-0.980705	-0.386180	0.902385	0.191222	0.915447	0.400382	-0.040641
03838														-9.673690	1.980255	-0.358247	-0.015755	-0.013577	0.018787	0.812500	-0.336426	0.395752	-0.113198	0.159650	-0.980662	-0.386344	0.902260	0.191482	0.915382	0.400548	-0.040454
03839														-9.612514	2.018692	-0.413535	-0.017500	-0.012821	0.004517	0.818359	-0.332275	0.397949	-0.113106	0.159801	-0.980648	-0.386543	0.902151	0.191593	0.915309	0.400733	-0.040269
03840														-9.581067	2.004182	-0.387917	-0.008947	-0.012713	-0.002126	0.816406	-0.330322	0.393311	-0.112990	0.159907	-0.980644	-0.386674	0.902083	0.191650	0.915268	0.400844	-0.040095
03841														-9.567218	1.963947	-0.429327	0.000123	-0.007059	-0.008711	0.816650	-0.338379	0.391357	-0.112901	0.159916	-0.980653	-0.386727	0.902066	0.191624	0.915257	0.400879	-0.040000
03842														-9.559493	1.948858	-0.398306	-0.000964	-0.008065	-0.001766	0.814453	-0.334473	0.393555	-0.112819	0.160010	-0.980647	-0.386786	0.902029	0.191680	0.915243	0.400925	-0.039876
03843														-9.567382	1.963468	-0.427865	0.001487	-0.007312	0.002204	0.814453	-0.334473	0.391357	-0.112769	0.160119	-0.980635	-0.386813	0.901999	0.191761	0.915237	0.400948	-0.039781
03844														-9.565306	1.940927	-0.418922	-0.007593	-0.009060	0.005892	0.816406	-0.332275	0.393555	-0.112711	0.160286	-0.980614	-0.386925	0.901923	0.191896	0.915197	0.401053	-0.039638
03845														-9.594926	1.966949	-0.338884	-0.020223	-0.008658	0.009659	0.814453	-0.330322	0.393311	-0.112677	0.160467	-0.980589	-0.387143	0.901795	0.192059	0.915109	0.401269	-0.039488
03846														-9.590689	1.965754	-0.418570	-0.027546	-0.005620	0.008963	0.816650	-0.336426	0.391357	-0.112660	0.160642	-0.980562	-0.387427	0.901637	0.192224	0.914991	0.401553	-0.039342
03847														-9.608315	1.975135	-0.389221	-0.027403	-0.003478	0.008566	0.812256	-0.328369	0.399902	-0.112670	0.160792	-0.980536	-0.387712	0.901482	0.192379	0.914869	0.401842	-0.039229
03848														-9.616095	1.990279	-0.418954	-0.014860	0.000911	0.000652	0.812500	-0.336426	0.393555	-0.112687	0.160864	-0.980522	-0.387890	0.901388	0.192460	0.914791	0.402023	-0.039177
03849														-9.633903	1.998588	-0.390427	0.003168	-0.001643	-0.003433	0.810547	-0.338623	0.402344	-0.112668	0.160899	-0.980519	-0.387909	0.901375	0.192485	0.914786	0.402039	-0.039141
03850														-9.594617	2.012606	-0.433145	0.010706	0.000485	-0.004780	0.818604	-0.334473	0.397949	-0.112673	0.160929	-0.980514	-0.387865	0.901388	0.192513	0.914804	0.401998	-0.039143
03851														-9.588885	2.020339	-0.411379	0.012622	0.003507	-0.006664	0.814453	-0.336426	0.395752	-0.112687	0.160914	-0.980514	-0.387801	0.901417	0.192502	0.914829	0.401937	-0.039176
03852														-9.592789	1.988481	-0.426079	0.011076	0.003887	-0.004323	0.814453	-0.336426	0.395752	-0.112716	0.160932	-0.980508	-0.387750	0.901434	0.192528	0.914847	0.401893	-0.039205
03853														-9.604760	2.005019	-0.375999	0.002218	0.003399	0.000219	0.818604	-0.340332	0.391357	-0.112757	0.160980	-0.980496	-0.387773	0.901411	0.192589	0.914832	0.401926	-0.039216
03854														-9.610512	1.997011	-0.398575	-0.006190	0.005430	0.006469	0.816406	-0.334473	0.393555	-0.112838	0.161096	-0.980467	-0.387873	0.901337	0.192733	0.914780	0.402044	-0.039220
03855														-9.608268	1.975026	-0.390933	-0.007131	0.006564	0.013018	0.818604	-0.334473	0.400146	-0.112957	0.161247	-0.980429	-0.387968	0.901256	0.192924	0.914725	0.402167	-0.039245
03856														-9.610041	1.999131	-0.399318	-0.007805	0.002785	0.010457	0.816406	-0.334473	0.395752	-0.113030	0.161400	-0.980395	-0.388070	0.901174	0.193099	0.914673	0.402288	-0.039226
03857														-9.578325	1.985578	-0.375159	-0.005949	-0.001126	0.013116	0.814453	-0.330322	0.397705	-0.113080	0.161582	-0.980359	-0.388154	0.901097	0.193290	0.914631	0.402387	-0.039177
03858														-9.566410	2.003398	-0.330779	-0.011355	0.004935	0.010536	0.814453	-0.332520	0.393555	-0.113172	0.161724	-0.980325	-0.388285	0.901003	0.193463	0.914564	0.402541	-0.039173
03859														-9.572062	1.995932	-0.353128	-0.021277	0.005083	0.006266	0.816650	-0.336426	0.393555	-0.113252	0.161820	-0.980300	-0.388517	0.900875	0.193593	0.914455	0.402788	-0.039156
03860														-9.571927	1.996543	-0.353317	-0.023058	0.008112	0.004858	0.816650	-0.336426	0.393555	-0.113347	0.161903	-0.980275	-0.388766	0.900741	0.193719	0.914338	0.403055	-0.039154
03861														-9.642646	1.997471	-0.335163	-0.020910	0.008484	0.006725	0.812500	-0.334473	0.393555	-0.113459	0.161989	-0.980248	-0.388993	0.900614	0.193853	0.914227	0.403304	-0.039170
03862														-9.615024	2.029413	-0.327666	-0.015065	0.008848	0.008117	0.812500	-0.336426	0.393555	-0.113575	0.162099	-0.980217	-0.389166	0.900506	0.194009	0.914139	0.403502	-0.039192
03863														-9.608714	2.005156	-0.401030	0.003349	0.005784	0.007389	0.812500	-0.334473	0.397949	-0.113666	0.162202	-0.980189	-0.389171	0.900475	0.194140	0.914126	0.403528	-0.039229
03864														-9.591035	2.030844	-0.335065	-0.000124	0.007051	0.008718	0.814453	-0.338623	0.393555	-0.113773	0.162323	-0.980157	-0.389206	0.900426	0.194297	0.914098	0.403588	-0.039268
03865														-9.549422	2.023173	-0.370099	0.003278	0.002758	0.009034	0.810303	-0.330566	0.388916	-0.113843	0.162453	-0.980127	-0.389209	0.900393	0.194444	0.914088	0.403611	-0.039275
03866														-9.602283	2.016027	-0.380383	-0.005593	0.006180	0.010679	0.814453	-0.336426	0.397949	-0.113940	0.162597	-0.980092	-0.389292	0.900319	0.194620	0.914040	0.403717	-0.039284
03867														-9.570550	2.002562	-0.356541	-0.014606	0.003550	0.015614	0.816650	-0.340576	0.389160	-0.114042	0.162783	-0.980049	-0.389452	0.900203	0.194839	0.913959	0.403901	-0.039265
03868														-9.601677	2.018852	-0.380697	-0.018382	0.004442	0.014838	0.812500	-0.336426	0.395752	-0.114145	0.162975	-0.980005	-0.389649	0.900068	0.195065	0.913862	0.404124	-0.039235
03869														-9.566109	2.036640	-0.342617	-0.018613	0.007092	0.011090	0.814453	-0.336426	0.391357	-0.114261	0.163105	-0.979970	-0.389851	0.899943	0.195241	0.913762	0.404351	-0.039242
03870														-9.599189	1.998199	-0.373050	-0.019140	0.005458	0.008131	0.816650	-0.338379	0.397949	-0.114347	0.163229	-0.979939	-0.390060	0.899818	0.195398	0.913662	0.404578	-0.039222
03871														-9.569516	2.007407	-0.357045	-0.029937	0.005859	0.011658	0.812500	-0.336426	0.393555	-0.114455	0.163369	-0.979903	-0.390364	0.899646	0.195584	0.913519	0.404904	-0.039195
03872														-9.592924	2.008557	-0.350907	-0.026618	0.006360	0.007830	0.812500	-0.336426	0.391357	-0.114551	0.163485	-0.979873	-0.390641	0.899492	0.195742	0.913388	0.405201	-0.039174
03873														-9.586892	2.017824	-0.328557	-0.028467	0.002452	0.010960	0.812500	-0.336426	0.395752	-0.114625	0.163633	-0.979839	-0.390932	0.899326	0.195920	0.913254	0.405508	-0.039116
03874														-9.572817	2.056482	-0.372900	-0.018848	0.005830	0.010238	0.816650	-0.336426	0.391357	-0.114723	0.163772	-0.979805	-0.391134	0.899200	0.196096	0.913155	0.405732	-0.039102
03875														-9.568645	2.011554	-0.357067	-0.015150	0.005821	0.009764	0.816650	-0.338379	0.393555	-0.114823	0.163896	-0.979772	-0.391305	0.899090	0.196258	0.913070	0.405925	-0.039103
03876														-9.590076	1.989751	-0.343023	-0.013374	0.002788	0.011169	0.814453	-0.336426	0.386963	-0.114891	0.164057	-0.979737	-0.391456	0.898985	0.196440	0.912996	0.406094	-0.039064
03877														-9.560411	1.998897	-0.326928	-0.013675	0.002415	0.009065	0.812500	-0.338623	0.389160	-0.114957	0.164188	-0.979708	-0.391615	0.898882	0.196594	0.912920	0.406268	-0.039034
03878														-9.583859	1.999872	-0.320777	-0.013752	0.003300	0.007816	0.814453	-0.336426	0.395752	-0.115010	0.164321	-0.979679	-0.391776	0.898779	0.196745	0.912844	0.406442	-0.038992
03879														-9.583657	2.000895	-0.320436	-0.023151	-0.002732	0.012283	0.814453	-0.338623	0.395752	-0.115042	0.164502	-0.979645	-0.392017	0.898632	0.196934	0.912737	0.406693	-0.038893
03880														-9.607040	2.002351	-0.313265	-0.036481	-0.006100	0.013478	0.812500	-0.342529	0.395996	-0.115046	0.164716	-0.979609	-0.392374	0.898430	0.197147	0.912583	0.407054	-0.038731
03881														-9.620450	2.010115	-0.364415	-0.042490	-0.004687	0.009588	0.812500	-0.338623	0.397949	-0.115050	0.164880	-0.979580	-0.392794	0.898209	0.197317	0.912401	0.407475	-0.038575
03882														-9.616441	2.042157	-0.348989	-0.050278	-0.000241	0.004295	0.814453	-0.338623	0.400146	-0.115079	0.164990	-0.979559	-0.393291	0.897962	0.197451	0.912184	0.407974	-0.038448
03883														-9.612519	2.073725	-0.333762	-0.043256	0.000253	-0.000005	0.812500	-0.340576	0.395752	-0.115091	0.165048	-0.979547	-0.393729	0.897753	0.197527	0.911993	0.408410	-0.038339
03884														-9.567227	2.096559	-0.353400	-0.039261	0.004529	-0.001260	0.814697	-0.342529	0.400391	-0.115142	0.165085	-0.979535	-0.394128	0.897562	0.197599	0.911814	0.408814	-0.038282
03885														-9.618373	2.065557	-0.355253	-0.035263	0.008806	-0.002514	0.816650	-0.340576	0.391357	-0.115221	0.165086	-0.979526	-0.394496	0.897390	0.197647	0.911645	0.409192	-0.038273
03886														-9.567290	2.096260	-0.353462	-0.033567	0.010574	-0.005245	0.812500	-0.342529	0.395996	-0.115307	0.165066	-0.979519	-0.394850	0.897227	0.197679	0.911481	0.409557	-0.038281
03887														-9.567322	2.096062	-0.353796	-0.038604	0.012212	-0.001570	0.808594	-0.344727	0.393799	-0.115422	0.165061	-0.979506	-0.395247	0.897039	0.197739	0.911294	0.409971	-0.038298
03888														-9.590934	2.096131	-0.348322	-0.034381	0.017746	-0.001963	0.810547	-0.340576	0.395752	-0.115591	0.165045	-0.979489	-0.395609	0.896864	0.197809	0.911116	0.410359	-0.038376
03889														-9.563318	2.127587	-0.341019	-0.038895	0.017089	0.007559	0.812500	-0.338623	0.386963	-0.115786	0.165102	-0.979456	-0.395998	0.896660	0.197958	0.910922	0.410784	-0.038440
03890														-9.537499	2.105370	-0.340296	-0.036450	0.021740	0.008652	0.812500	-0.340576	0.395752	-0.116021	0.165161	-0.979419	-0.396361	0.896462	0.198124	0.910734	0.411190	-0.038545
03891														-9.566698	2.098227	-0.357787	-0.036532	0.022626	0.007406	0.810547	-0.342773	0.398193	-0.116266	0.165194	-0.979384	-0.396729	0.896267	0.198271	0.910543	0.411602	-0.038668
03892														-9.568412	2.122043	-0.367139	-0.030978	0.022613	0.006698	0.816650	-0.342529	0.395996	-0.116513	0.165228	-0.979349	-0.397043	0.896095	0.198419	0.910374	0.411962	-0.038804
03893														-9.566269	2.099657	-0.360874	-0.023642	0.023484	0.004508	0.812744	-0.344727	0.395996	-0.116754	0.165231	-0.979320	-0.397296	0.895958	0.198532	0.910233	0.412260	-0.038961
03894														-9.583922	2.108392	-0.334435	-0.019565	0.026874	0.004510	0.810791	-0.348633	0.398193	-0.117028	0.165232	-0.979287	-0.397511	0.895836	0.198655	0.910104	0.412525	-0.039157
03895														-9.589576	2.100578	-0.358757	-0.018460	0.023992	0.000449	0.812500	-0.338623	0.393555	-0.117258	0.165196	-0.979266	-0.397722	0.895726	0.198727	0.909982	0.412777	-0.039329
03896														-9.577851	2.117151	-0.316197	-0.017644	0.025980	0.005521	0.812744	-0.342529	0.393799	-0.117529	0.165209	-0.979231	-0.397918	0.895610	0.198860	0.909862	0.413025	-0.039521
03897														-9.585367	2.132671	-0.348224	-0.012530	0.019536	0.005974	0.810547	-0.342529	0.391602	-0.117740	0.165241	-0.979200	-0.398068	0.895515	0.198983	0.909769	0.413217	-0.039661
03898														-9.559566	2.110290	-0.348249	-0.006225	0.022400	0.009096	0.812744	-0.342529	0.391602	-0.117985	0.165302	-0.979160	-0.398155	0.895441	0.199144	0.909699	0.413354	-0.039832
03899														-9.586798	2.080114	-0.358689	0.006829	0.021482	0.008698	0.812500	-0.340576	0.389160	-0.118224	0.165350	-0.979123	-0.398126	0.895422	0.199287	0.909680	0.413375	-0.040030
03900														-9.557139	2.088863	-0.344631	0.008459	0.020222	0.007603	0.810547	-0.344727	0.395996	-0.118435	0.165407	-0.979088	-0.398081	0.895411	0.199425	0.909673	0.413375	-0.040203
03901														-9.560769	2.058376	-0.361265	0.004823	0.023263	0.006440	0.814697	-0.340576	0.395752	-0.118682	0.165428	-0.979055	-0.398073	0.895388	0.199546	0.909644	0.413418	-0.040414
03902														-9.580358	2.090173	-0.343176	-0.006306	0.027209	0.004968	0.814697	-0.346680	0.395996	-0.118957	0.165429	-0.979021	-0.398163	0.895321	0.199665	0.909569	0.413562	-0.040637
03903														-9.574463	2.098549	-0.323109	-0.014764	0.023984	-0.000029	0.812744	-0.344727	0.398193	-0.119184	0.165389	-0.979000	-0.398341	0.895227	0.199731	0.909461	0.413781	-0.040816
03904														-9.556534	2.090164	-0.353397	-0.020996	0.024154	-0.004787	0.810547	-0.342529	0.395996	-0.119396	0.165318	-0.978986	-0.398579	0.895114	0.199765	0.909329	0.414055	-0.040981
03905														-9.550888	2.097472	-0.333118	-0.010608	0.025173	-0.012893	0.812500	-0.342529	0.395996	-0.119583	0.165158	-0.978991	-0.398735	0.895058	0.199703	0.909236	0.414239	-0.041180
03906														-9.556837	2.088091	-0.357452	0.000002	0.019606	-0.014384	0.808594	-0.340576	0.391357	-0.119711	0.165016	-0.978999	-0.398790	0.895050	0.199630	0.909195	0.414313	-0.041341
03907														-9.600540	2.118096	-0.332941	0.015209	0.019051	-0.012896	0.804443	-0.340820	0.395752	-0.119842	0.164881	-0.979006	-0.398711	0.895101	0.199557	0.909213	0.414255	-0.041531
03908														-9.568761	2.068992	-0.406298	0.031384	0.017394	-0.017961	0.810547	-0.340576	0.395752	-0.119934	0.164718	-0.979022	-0.398485	0.895229	0.199436	0.909299	0.414045	-0.041731
03909														-9.581293	2.083387	-0.358000	0.044212	0.015222	-0.019204	0.812500	-0.342529	0.400391	-0.120005	0.164542	-0.979043	-0.398149	0.895411	0.199289	0.909437	0.413721	-0.041941
03910														-9.591146	2.042127	-0.397185	0.048132	0.016468	-0.018808	0.810547	-0.342773	0.406982	-0.120089	0.164372	-0.979061	-0.397771	0.895610	0.199151	0.909592	0.413358	-0.042170
03911														-9.583859	2.025116	-0.369610	0.042338	0.019141	-0.021848	0.812744	-0.344482	0.389404	-0.120185	0.164157	-0.979085	-0.397455	0.895788	0.198980	0.909717	0.413057	-0.042416
03912														-9.591831	2.037895	-0.402342	0.029427	0.018277	-0.018975	0.806641	-0.346680	0.398193	-0.120287	0.163982	-0.979102	-0.397251	0.895907	0.198853	0.909793	0.412869	-0.042624
03913														-9.574226	2.027439	-0.433315	0.014438	0.027915	-0.025373	0.808594	-0.342773	0.391602	-0.120450	0.163699	-0.979129	-0.397194	0.895976	0.198658	0.909796	0.412832	-0.042900
03914														-9.598355	2.024718	-0.430111	0.009623	0.025559	-0.032087	0.810547	-0.342773	0.398193	-0.120564	0.163383	-0.979168	-0.397190	0.896031	0.198417	0.909783	0.412838	-0.043135
03915														-9.557270	2.013101	-0.467355	0.005974	0.032511	-0.036138	0.808594	-0.338623	0.397949	-0.120725	0.162985	-0.979215	-0.397223	0.896082	0.198120	0.909747	0.412884	-0.043439
03916														-9.589992	1.979857	-0.398184	0.003668	0.033917	-0.040506	0.812500	-0.340576	0.402344	-0.120882	0.162551	-0.979268	-0.397277	0.896131	0.197791	0.909703	0.412949	-0.043748
03917														-9.561340	1.983990	-0.385339	0.003726	0.036945	-0.042139	0.810547	-0.340576	0.402344	-0.121060	0.162080	-0.979324	-0.397337	0.896182	0.197437	0.909653	0.413023	-0.044091
03918														-9.585656	1.980204	-0.383078	0.000737	0.039828	-0.037850	0.810547	-0.342773	0.402588	-0.121286	0.161642	-0.979368	-0.397413	0.896215	0.197134	0.909589	0.413123	-0.044460
03919														-9.641197	1.991540	-0.404901	0.000302	0.033398	-0.036688	0.802490	-0.338867	0.400146	-0.121453	0.161235	-0.979414	-0.397498	0.896243	0.196835	0.909530	0.413221	-0.044761
03920														-9.665435	1.988192	-0.402147	0.000662	0.032879	-0.033334	0.812500	-0.338623	0.400146	-0.121637	0.160869	-0.979452	-0.397572	0.896266	0.196580	0.909473	0.413314	-0.045062
03921														-9.644268	2.007962	-0.418965	0.005794	0.026447	-0.032860	0.814697	-0.340576	0.395752	-0.121756	0.160525	-0.979493	-0.397603	0.896310	0.196316	0.909444	0.413352	-0.045306
03922														-9.568173	2.012851	-0.417387	0.007920	0.030731	-0.033863	0.810547	-0.338623	0.402344	-0.121903	0.160165	-0.979534	-0.397610	0.896365	0.196048	0.909421	0.413372	-0.045586
03923														-9.544994	2.009853	-0.426235	0.010149	0.026297	-0.027857	0.808350	-0.338623	0.406738	-0.122040	0.159866	-0.979566	-0.397595	0.896420	0.195831	0.909409	0.413370	-0.045837
03924														-9.545421	2.007269	-0.428833	0.002807	0.025410	-0.025695	0.808350	-0.336670	0.397949	-0.122187	0.159595	-0.979592	-0.397637	0.896441	0.195647	0.909371	0.413427	-0.046072
03925														-9.567564	1.981581	-0.417477	-0.005134	0.027698	-0.030627	0.810547	-0.340576	0.402344	-0.122326	0.159266	-0.979628	-0.397764	0.896437	0.195409	0.909296	0.413565	-0.046307
03926														-9.536852	1.963608	-0.395743	-0.015008	0.030870	-0.036579	0.808350	-0.338623	0.400146	-0.122469	0.158880	-0.979673	-0.397984	0.896401	0.195127	0.909181	0.413791	-0.046550
03927														-9.561135	1.960187	-0.392296	-0.031991	0.030492	-0.036633	0.808350	-0.338623	0.400146	-0.122610	0.158485	-0.979719	-0.398363	0.896294	0.194844	0.908996	0.414174	-0.046760
03928														-9.565754	2.002764	-0.410636	-0.037369	0.035658	-0.037967	0.808594	-0.342773	0.400391	-0.122792	0.158067	-0.979764	-0.398789	0.896166	0.194560	0.908785	0.414609	-0.047006
03929														-9.615759	2.022264	-0.409266	-0.043082	0.033508	-0.036897	0.810547	-0.340576	0.397949	-0.122958	0.157657	-0.979809	-0.399269	0.896013	0.194279	0.908551	0.415095	-0.047225
03930														-9.616325	2.019137	-0.411398	-0.033570	0.026939	-0.031415	0.810303	-0.334473	0.402344	-0.123086	0.157340	-0.979844	-0.399656	0.895887	0.194063	0.908364	0.415487	-0.047390
03931														-9.650104	2.054110	-0.445567	-0.026005	0.025173	-0.029830	0.814453	-0.338623	0.404541	-0.123205	0.157028	-0.979879	-0.399972	0.895794	0.193844	0.908208	0.415807	-0.047560
03932														-9.674258	2.051484	-0.441525	-0.006995	0.019876	-0.024621	0.810547	-0.336670	0.397949	-0.123296	0.156790	-0.979906	-0.400101	0.895774	0.193671	0.908140	0.415940	-0.047714
03933														-9.634805	2.064228	-0.485316	0.011862	0.016356	-0.021902	0.814697	-0.340576	0.400146	-0.123366	0.156585	-0.979930	-0.400063	0.895825	0.193511	0.908147	0.415906	-0.047871
03934														-9.591244	2.031063	-0.513360	0.024998	0.014603	-0.020994	0.812500	-0.340576	0.393555	-0.123417	0.156409	-0.979951	-0.399902	0.895929	0.193363	0.908211	0.415748	-0.048025
03935														-9.584009	2.014287	-0.485057	0.025575	0.015341	-0.016780	0.810303	-0.334473	0.397949	-0.123499	0.156254	-0.979966	-0.399733	0.896030	0.193246	0.908274	0.415590	-0.048198
03936														-9.578008	1.944226	-0.463200	0.012269	0.016274	-0.003191	0.808594	-0.340576	0.397949	-0.123629	0.156233	-0.979953	-0.399666	0.896053	0.193278	0.908286	0.415549	-0.048337
03937														-9.607137	1.935897	-0.481262	-0.011547	0.016600	0.001852	0.808350	-0.338623	0.402344	-0.123796	0.156241	-0.979930	-0.399812	0.895969	0.193363	0.908199	0.415726	-0.048451
03938														-9.606962	1.936473	-0.482450	-0.042652	0.019055	0.007412	0.810547	-0.336670	0.400146	-0.124007	0.156302	-0.979894	-0.400232	0.895746	0.193530	0.907985	0.416184	-0.048522
03939														-9.583685	2.014519	-0.490467	-0.071301	0.020925	0.002845	0.812500	-0.334473	0.397949	-0.124218	0.156300	-0.979867	-0.400919	0.895412	0.193653	0.907653	0.416903	-0.048563
03940														-9.583548	2.015044	-0.490999	-0.095837	0.025311	-0.000449	0.810303	-0.334473	0.400146	-0.124444	0.156259	-0.979845	-0.401825	0.894983	0.193759	0.907221	0.417839	-0.048587
03941														-9.585491	2.038350	-0.499439	-0.099821	0.027961	-0.003730	0.810547	-0.338623	0.404541	-0.124692	0.156168	-0.979828	-0.402778	0.894538	0.193832	0.906764	0.418823	-0.048641
03942														-9.560332	2.092582	-0.499596	-0.082880	0.032277	-0.006515	0.810547	-0.338623	0.404541	-0.124965	0.156040	-0.979814	-0.403572	0.894172	0.193873	0.906374	0.419652	-0.048767
03943														-9.562322	2.115378	-0.509190	-0.056193	0.035206	-0.005824	0.810547	-0.342773	0.400391	-0.125270	0.155900	-0.979797	-0.404131	0.893912	0.193904	0.906083	0.420257	-0.048977
03944														-9.558216	2.068975	-0.495828	-0.026381	0.030464	-0.005304	0.812500	-0.338623	0.402344	-0.125535	0.155795	-0.979780	-0.404415	0.893777	0.193936	0.905919	0.420584	-0.049195
03945														-9.576363	2.076890	-0.470144	-0.001057	0.028057	0.003081	0.806396	-0.340820	0.406982	-0.125812	0.155764	-0.979749	-0.404464	0.893735	0.194027	0.905859	0.420684	-0.049441
03946														-9.526606	2.054900	-0.476512	0.001974	0.025597	0.014157	0.804443	-0.342773	0.402588	-0.126114	0.155850	-0.979697	-0.404464	0.893690	0.194233	0.905817	0.420748	-0.049672
03947														-9.571585	2.033109	-0.459485	0.000270	0.023813	0.016869	0.810547	-0.338623	0.397949	-0.126408	0.155959	-0.979642	-0.404483	0.893633	0.194459	0.905767	0.420829	-0.049879
03948														-9.573083	2.058089	-0.469385	-0.012296	0.022369	0.023031	0.810547	-0.342773	0.398193	-0.126710	0.156144	-0.979573	-0.404605	0.893512	0.194762	0.905671	0.421018	-0.050041
03949														-9.588781	2.045412	-0.434856	-0.023844	0.015915	0.025510	0.806396	-0.340820	0.402344	-0.126968	0.156364	-0.979505	-0.404831	0.893339	0.195085	0.905534	0.421303	-0.050124
03950														-9.591639	2.016790	-0.450398	-0.035363	0.016416	0.023498	0.810547	-0.342773	0.402588	-0.127217	0.156578	-0.979438	-0.405161	0.893119	0.195404	0.905351	0.421689	-0.050180
03951														-9.547691	2.065205	-0.478405	-0.039814	0.017461	0.017241	0.806641	-0.344727	0.402588	-0.127455	0.156718	-0.979385	-0.405542	0.892891	0.195654	0.905147	0.422119	-0.050247
03952														-9.461339	2.036980	-0.436157	-0.033167	0.015495	0.011267	0.808594	-0.342773	0.398193	-0.127652	0.156826	-0.979342	-0.405868	0.892699	0.195854	0.904973	0.422485	-0.050304
03953														-9.494082	2.076437	-0.469348	-0.028464	0.018732	0.016770	0.806396	-0.340820	0.397949	-0.127899	0.156956	-0.979289	-0.406147	0.892520	0.196093	0.904813	0.422815	-0.050405
03954														-9.515408	2.054994	-0.456784	-0.019571	0.012319	0.016790	0.808594	-0.340576	0.402344	-0.128079	0.157127	-0.979238	-0.406341	0.892378	0.196337	0.904700	0.423052	-0.050447
03955														-9.567827	2.048593	-0.468890	-0.005513	0.018606	0.019561	0.806396	-0.342773	0.409180	-0.128336	0.157283	-0.979179	-0.406409	0.892291	0.196592	0.904633	0.423177	-0.050592
03956														-9.547005	2.019771	-0.490924	0.010024	0.014539	0.026106	0.812744	-0.344727	0.402588	-0.128588	0.157519	-0.979108	-0.406318	0.892262	0.196910	0.904638	0.423150	-0.050731
03957														-9.568622	2.076355	-0.479783	0.017475	0.010626	0.028081	0.810547	-0.338623	0.402344	-0.128808	0.157784	-0.979037	-0.406167	0.892259	0.197237	0.904675	0.423058	-0.050844
03958														-9.593257	2.024608	-0.482304	0.022764	0.010271	0.025306	0.806641	-0.344727	0.404785	-0.129006	0.158034	-0.978970	-0.405962	0.892286	0.197538	0.904739	0.422908	-0.050954
03959														-9.576326	2.042005	-0.519684	0.017108	0.011154	0.024729	0.806396	-0.340820	0.404541	-0.129217	0.158267	-0.978905	-0.405818	0.892286	0.197832	0.904773	0.422820	-0.051071
03960														-9.563073	2.036945	-0.468514	0.010735	0.013094	0.017447	0.806396	-0.342773	0.404785	-0.129418	0.158435	-0.978851	-0.405733	0.892273	0.198065	0.904783	0.422786	-0.051194
03961														-9.566146	2.007388	-0.484738	0.005141	0.017011	0.015248	0.810547	-0.342773	0.402588	-0.129644	0.158558	-0.978801	-0.405710	0.892237	0.198273	0.904761	0.422814	-0.051344
03962														-9.543619	1.954524	-0.499052	-0.004663	0.019310	0.010517	0.808594	-0.342773	0.398193	-0.129868	0.158638	-0.978759	-0.405773	0.892171	0.198444	0.904700	0.422925	-0.051493
03963														-9.574365	1.970604	-0.525202	-0.012101	0.019303	0.011403	0.806641	-0.344727	0.402588	-0.130099	0.158718	-0.978715	-0.405910	0.892068	0.198623	0.904606	0.423111	-0.051632
03964														-9.550552	1.980649	-0.429336	-0.016179	0.019828	0.008493	0.808594	-0.346680	0.400391	-0.130313	0.158782	-0.978676	-0.406082	0.891954	0.198783	0.904497	0.423327	-0.051755
03965														-9.581348	1.996539	-0.455270	-0.021968	0.018570	0.008291	0.804443	-0.342773	0.404785	-0.130525	0.158836	-0.978639	-0.406313	0.891815	0.198936	0.904363	0.423600	-0.051867
03966														-9.555809	2.051549	-0.455505	-0.022045	0.019460	0.007048	0.808594	-0.344727	0.404785	-0.130736	0.158888	-0.978602	-0.406540	0.891678	0.199086	0.904231	0.423869	-0.051980
03967														-9.559137	2.020850	-0.471604	-0.017389	0.019271	-0.001185	0.806641	-0.344727	0.406982	-0.130915	0.158855	-0.978584	-0.406741	0.891573	0.199144	0.904114	0.424102	-0.052108
03968														-9.564498	2.012567	-0.495658	-0.006588	0.019810	-0.005862	0.802490	-0.342773	0.400391	-0.131082	0.158786	-0.978573	-0.406843	0.891524	0.199159	0.904044	0.424232	-0.052262
03969														-9.528174	2.004768	-0.450362	0.003739	0.014811	-0.010650	0.804688	-0.346924	0.400391	-0.131182	0.158687	-0.978575	-0.406866	0.891524	0.199113	0.904020	0.424269	-0.052388
03970														-9.552064	2.003628	-0.446304	0.009450	0.016959	-0.011688	0.806396	-0.342773	0.404785	-0.131292	0.158584	-0.978577	-0.406834	0.891549	0.199064	0.904018	0.424254	-0.052536
03971														-9.528527	2.002318	-0.453773	0.008886	0.016236	-0.015906	0.808594	-0.346680	0.406982	-0.131384	0.158433	-0.978589	-0.406817	0.891579	0.198965	0.904012	0.424248	-0.052686
03972														-9.537949	2.038996	-0.493365	0.001519	0.015338	-0.013783	0.806641	-0.344727	0.404785	-0.131477	0.158313	-0.978596	-0.406856	0.891576	0.198897	0.903981	0.424298	-0.052811
03973														-9.536241	2.014616	-0.486963	-0.004269	0.014079	-0.013989	0.806641	-0.344727	0.409180	-0.131557	0.158188	-0.978606	-0.406956	0.891547	0.198823	0.903925	0.424406	-0.052914
03974														-9.538373	2.036381	-0.495977	-0.006130	0.014076	-0.013769	0.804443	-0.338623	0.400146	-0.131641	0.158072	-0.978613	-0.407063	0.891512	0.198761	0.903864	0.424523	-0.053014
03975														-9.560436	2.011864	-0.483530	-0.008612	0.010317	-0.016149	0.804443	-0.340820	0.406982	-0.131679	0.157944	-0.978629	-0.407205	0.891468	0.198668	0.903795	0.424663	-0.053072
03976														-9.562641	2.033411	-0.492100	-0.014267	0.011200	-0.016733	0.804688	-0.346924	0.402588	-0.131715	0.157811	-0.978645	-0.407386	0.891407	0.198573	0.903708	0.424841	-0.053121
03977														-9.586698	2.031697	-0.487115	-0.010962	0.008701	-0.018905	0.804443	-0.340820	0.400146	-0.131726	0.157665	-0.978667	-0.407552	0.891357	0.198454	0.903631	0.425000	-0.053158
03978														-9.559876	2.061107	-0.478864	-0.018141	0.012975	-0.018780	0.808594	-0.344727	0.406982	-0.131770	0.157514	-0.978686	-0.407778	0.891277	0.198349	0.903523	0.425223	-0.053213
03979														-9.565550	2.051376	-0.502005	-0.018482	0.009579	-0.019270	0.810791	-0.348877	0.404785	-0.131788	0.157361	-0.978708	-0.408013	0.891196	0.198231	0.903414	0.425450	-0.053243
03980														-9.538788	2.080667	-0.493447	-0.015176	0.007081	-0.021442	0.804443	-0.342773	0.398193	-0.131774	0.157211	-0.978734	-0.408215	0.891132	0.198101	0.903325	0.425639	-0.053252
03981														-9.539159	2.078850	-0.493942	-0.001519	0.006937	-0.017513	0.804688	-0.346924	0.404785	-0.131775	0.157085	-0.978754	-0.408294	0.891120	0.197991	0.903289	0.425710	-0.053290
03982														-9.542822	2.046340	-0.509231	0.006428	0.004639	-0.012552	0.802490	-0.346924	0.404785	-0.131770	0.157027	-0.978764	-0.408291	0.891134	0.197936	0.903291	0.425703	-0.053312
03983														-9.541044	2.022246	-0.502390	0.014972	0.010023	-0.007850	0.806641	-0.346924	0.402588	-0.131839	0.156974	-0.978763	-0.408209	0.891177	0.197912	0.903318	0.425632	-0.053414
03984														-9.515469	1.998520	-0.501040	0.010524	0.000192	-0.006776	0.808594	-0.346924	0.413574	-0.131824	0.156987	-0.978763	-0.408163	0.891197	0.197915	0.903341	0.425584	-0.053405
03985														-9.546631	2.012719	-0.525900	0.001202	0.004097	-0.008543	0.806641	-0.342773	0.402588	-0.131836	0.156953	-0.978767	-0.408205	0.891183	0.197892	0.903320	0.425627	-0.053421
03986														-9.544757	1.989181	-0.518522	-0.011052	0.006044	-0.001925	0.804443	-0.340820	0.402344	-0.131897	0.156977	-0.978755	-0.408342	0.891108	0.197948	0.903250	0.425775	-0.053434
03987														-9.557870	2.005016	-0.468166	-0.016763	0.003888	-0.000892	0.804443	-0.344727	0.404785	-0.131939	0.157012	-0.978744	-0.408537	0.891005	0.198009	0.903156	0.425978	-0.053413
03988														-9.567105	2.043104	-0.506098	-0.016970	0.002636	-0.001759	0.808594	-0.344727	0.400391	-0.131962	0.157054	-0.978734	-0.408726	0.890905	0.198068	0.903066	0.426172	-0.053373
03989														-9.561788	2.051116	-0.483577	-0.016690	0.002997	0.000351	0.806641	-0.344727	0.402588	-0.132000	0.157104	-0.978721	-0.408919	0.890800	0.198142	0.902974	0.426372	-0.053343
03990														-9.569029	2.066338	-0.513715	-0.012894	0.002114	0.001156	0.808594	-0.342773	0.402588	-0.132025	0.157178	-0.978706	-0.409071	0.890711	0.198229	0.902901	0.426531	-0.053299
03991														-9.545252	2.066611	-0.519248	-0.009303	-0.000021	0.001094	0.808594	-0.344727	0.404785	-0.132039	0.157247	-0.978693	-0.409196	0.890637	0.198305	0.902842	0.426661	-0.053254
03992														-9.563646	2.074646	-0.491211	-0.008838	0.005517	0.001211	0.804443	-0.344727	0.402588	-0.132097	0.157303	-0.978676	-0.409307	0.890567	0.198387	0.902783	0.426786	-0.053256
03993														-9.510737	2.083205	-0.480465	-0.008277	0.006238	0.005431	0.810547	-0.342773	0.406982	-0.132186	0.157384	-0.978651	-0.409417	0.890490	0.198506	0.902721	0.426916	-0.053274
03994														-9.512024	2.029597	-0.487745	0.000767	0.001972	0.005087	0.804443	-0.344727	0.404785	-0.132231	0.157488	-0.978628	-0.409436	0.890456	0.198621	0.902705	0.426949	-0.053264
03995														-9.515822	2.076183	-0.503287	0.002292	-0.001418	0.004376	0.806641	-0.346924	0.404785	-0.132246	0.157592	-0.978609	-0.409452	0.890426	0.198723	0.902696	0.426974	-0.053228
03996														-9.530270	2.038368	-0.459581	0.004228	-0.002306	0.005400	0.804688	-0.348877	0.402588	-0.132257	0.157720	-0.978587	-0.409442	0.890403	0.198844	0.902699	0.426973	-0.053185
03997														-9.532153	2.061779	-0.467129	0.005602	-0.003914	0.002204	0.804688	-0.348877	0.406982	-0.132241	0.157816	-0.978574	-0.409431	0.890391	0.198924	0.902706	0.426964	-0.053131
03998														-9.584978	2.053616	-0.477900	-0.000541	-0.004647	-0.001360	0.802734	-0.350830	0.402588	-0.132208	0.157898	-0.978565	-0.409477	0.890355	0.198987	0.902690	0.427008	-0.053056
03999														-9.563220	2.076657	-0.491019	-0.004002	-0.000368	-0.001672	0.802490	-0.344971	0.400391	-0.132208	0.157944	-0.978557	-0.409558	0.890308	0.199034	0.902653	0.427090	-0.053018
04000														-9.561369	2.053240	-0.482848	-0.005030	-0.006627	-0.006009	0.808594	-0.346680	0.404785	-0.132133	0.157995	-0.978559	-0.409652	0.890260	0.199053	0.902622	0.427170	-0.052910
04001														-9.537848	2.052415	-0.487980	-0.000030	-0.003409	-0.013745	0.808594	-0.342773	0.400391	-0.132056	0.157947	-0.978578	-0.409713	0.890249	0.198979	0.902606	0.427212	-0.052850
04002														-9.567153	2.043283	-0.504454	0.006265	-0.004459	-0.007697	0.804443	-0.344727	0.402588	-0.131986	0.157967	-0.978584	-0.409700	0.890257	0.198967	0.902622	0.427186	-0.052782
04003														-9.547521	2.088649	-0.525346	0.015362	-0.005690	-0.009659	0.804443	-0.342773	0.398193	-0.131905	0.157965	-0.978595	-0.409616	0.890305	0.198925	0.902671	0.427088	-0.052731
04004														-9.564197	2.072556	-0.489316	0.023159	-0.006203	-0.007182	0.808594	-0.348877	0.395996	-0.131821	0.157998	-0.978601	-0.409451	0.890385	0.198910	0.902759	0.426910	-0.052679
04005														-9.545878	2.064201	-0.517339	0.020280	-0.005130	-0.000415	0.808594	-0.346680	0.395996	-0.131783	0.158076	-0.978594	-0.409311	0.890439	0.198956	0.902828	0.426768	-0.052642
04006														-9.540585	2.072070	-0.494889	0.016688	-0.002995	-0.000353	0.804688	-0.346924	0.402588	-0.131747	0.158166	-0.978584	-0.409203	0.890475	0.199017	0.902882	0.426659	-0.052595
04007														-9.569723	2.063692	-0.511417	0.006488	-0.007134	-0.003968	0.808594	-0.344727	0.402588	-0.131676	0.158221	-0.978584	-0.409192	0.890476	0.199035	0.902897	0.426637	-0.052512
04008														-9.597015	2.031694	-0.520233	0.002367	0.001236	-0.012605	0.802490	-0.344971	0.402588	-0.131642	0.158175	-0.978596	-0.409223	0.890474	0.198980	0.902888	0.426658	-0.052495
04009														-9.608401	2.023308	-0.462082	0.002367	0.001236	-0.012605	0.808594	-0.344727	0.404785	-0.131612	0.158117	-0.978610	-0.409260	0.890471	0.198917	0.902876	0.426686	-0.052485
04010														-9.645051	2.028796	-0.509236	0.011179	-0.000356	-0.016676	0.808594	-0.342773	0.406982	-0.131548	0.158039	-0.978631	-0.409215	0.890514	0.198816	0.902905	0.426625	-0.052474
04011														-9.621688	2.027082	-0.514970	0.016141	-0.004099	-0.019933	0.812744	-0.344727	0.404785	-0.131440	0.157939	-0.978662	-0.409138	0.890581	0.198674	0.902956	0.426521	-0.052439
04012														-9.589029	1.987444	-0.482448	0.016726	-0.007300	-0.012852	0.810547	-0.346680	0.398193	-0.131328	0.157921	-0.978680	-0.409034	0.890645	0.198603	0.903019	0.426396	-0.052371
04013														-9.538425	2.017832	-0.478551	0.006077	-0.009639	-0.005699	0.804443	-0.344727	0.404785	-0.131227	0.157971	-0.978685	-0.409029	0.890646	0.198605	0.903036	0.426373	-0.052262
04014														-9.494337	1.986939	-0.503636	-0.004082	-0.010362	0.004431	0.804443	-0.346924	0.409180	-0.131156	0.158127	-0.978669	-0.409097	0.890590	0.198721	0.903016	0.426434	-0.052116
04015														-9.539766	1.964256	-0.483496	-0.001659	-0.009634	0.008430	0.802490	-0.346924	0.406982	-0.131113	0.158303	-0.978647	-0.409143	0.890536	0.198865	0.903001	0.426481	-0.051992
04016														-9.565330	1.988190	-0.484660	-0.006751	-0.008033	0.012064	0.808594	-0.348877	0.404785	-0.131112	0.158513	-0.978613	-0.409224	0.890456	0.199060	0.902965	0.426571	-0.051883
04017														-9.556485	2.028299	-0.446577	-0.011036	-0.008767	0.008285	0.808594	-0.344727	0.400391	-0.131077	0.158684	-0.978590	-0.409355	0.890362	0.199208	0.902911	0.426702	-0.051748
04018														-9.609220	2.020582	-0.456959	-0.014879	-0.000037	0.001757	0.804443	-0.346924	0.406982	-0.131090	0.158772	-0.978574	-0.409523	0.890263	0.199304	0.902832	0.426875	-0.051684
04019														-9.589439	2.066897	-0.477702	-0.017434	-0.002908	-0.001866	0.802490	-0.344971	0.400391	-0.131066	0.158827	-0.978568	-0.409725	0.890159	0.199355	0.902744	0.427073	-0.051595
04020														-9.609963	2.097357	-0.456716	-0.014639	-0.003093	-0.009876	0.800537	-0.344971	0.402588	-0.131011	0.158822	-0.978576	-0.409905	0.890080	0.199337	0.902670	0.427239	-0.051508
04021														-9.662923	2.088533	-0.467377	-0.002349	-0.001618	-0.002757	0.806641	-0.344727	0.406982	-0.130995	0.158864	-0.978572	-0.409972	0.890041	0.199372	0.902642	0.427304	-0.051461
04022														-9.662889	2.088646	-0.467572	0.021591	0.001499	0.006021	0.804443	-0.344727	0.404785	-0.131047	0.158978	-0.978546	-0.409802	0.890094	0.199488	0.902712	0.427153	-0.051495
04023														-9.620466	2.082066	-0.501716	0.034076	-0.006658	0.021350	0.806641	-0.344727	0.400391	-0.131085	0.159256	-0.978496	-0.409509	0.890172	0.199741	0.902840	0.426886	-0.051471
04024														-9.596292	2.084164	-0.507447	0.043596	-0.009309	0.023981	0.802490	-0.344971	0.406982	-0.131106	0.159578	-0.978441	-0.409116	0.890290	0.200020	0.903014	0.426520	-0.051437
04025														-9.597263	2.031981	-0.514492	0.041706	-0.005391	0.021339	0.808594	-0.344727	0.404785	-0.131155	0.159850	-0.978390	-0.408754	0.890400	0.200268	0.903171	0.426187	-0.051441
04026														-9.538756	2.049765	-0.481330	0.025959	-0.002587	0.013906	0.800537	-0.348877	0.402588	-0.131201	0.160050	-0.978351	-0.408532	0.890459	0.200458	0.903265	0.425988	-0.051444
04027														-9.541921	2.019648	-0.496137	0.006575	-0.000680	0.008155	0.804443	-0.342773	0.398193	-0.131238	0.160185	-0.978324	-0.408505	0.890441	0.200595	0.903272	0.425976	-0.051424
04028														-9.570872	2.012166	-0.512848	-0.008731	0.000708	0.005317	0.802490	-0.346924	0.409180	-0.131273	0.160302	-0.978300	-0.408612	0.890363	0.200722	0.903218	0.426095	-0.051379
04029														-9.567425	2.043561	-0.498140	-0.020471	0.003883	-0.000447	0.808594	-0.342773	0.398193	-0.131316	0.160341	-0.978288	-0.408840	0.890243	0.200789	0.903109	0.426330	-0.051350
04030														-9.541742	2.020479	-0.496207	-0.022429	0.008693	-0.004334	0.806641	-0.348877	0.400391	-0.131385	0.160332	-0.978280	-0.409080	0.890125	0.200824	0.902990	0.426580	-0.051361
04031														-9.514713	2.051213	-0.487238	-0.030901	0.002414	-0.007786	0.810547	-0.344727	0.400391	-0.131385	0.160312	-0.978283	-0.409411	0.889973	0.200825	0.902840	0.426906	-0.051296
04032														-9.516817	2.073626	-0.494954	-0.022998	0.007967	-0.008552	0.802734	-0.350830	0.402588	-0.131423	0.160274	-0.978284	-0.409665	0.889857	0.200821	0.902720	0.427161	-0.051289
04033														-9.539190	2.127322	-0.482934	-0.004852	0.009812	0.000019	0.802490	-0.346924	0.404785	-0.131521	0.160291	-0.978268	-0.409751	0.889803	0.200884	0.902666	0.427267	-0.051349
04034														-9.513521	2.104055	-0.481502	0.020099	0.000573	-0.005767	0.808594	-0.346680	0.404785	-0.131519	0.160310	-0.978266	-0.409614	0.889864	0.200892	0.902729	0.427132	-0.051369
04035														-9.495215	2.095527	-0.510270	0.042844	-0.000799	-0.003806	0.806641	-0.344727	0.404785	-0.131506	0.160339	-0.978263	-0.409275	0.890020	0.200894	0.902885	0.426797	-0.051421
04036														-9.559210	2.079696	-0.463829	0.056079	-0.003443	-0.001611	0.808594	-0.344727	0.404785	-0.131477	0.160405	-0.978256	-0.408801	0.890233	0.200915	0.903103	0.426327	-0.051472
04037														-9.557306	2.056224	-0.456676	0.053873	-0.006844	-0.001879	0.806641	-0.350830	0.398193	-0.131418	0.160477	-0.978252	-0.408359	0.890433	0.200930	0.903312	0.425884	-0.051486
04038														-9.555389	2.032867	-0.449244	0.037267	-0.004737	-0.000280	0.806641	-0.348877	0.400391	-0.131378	0.160568	-0.978242	-0.408059	0.890559	0.200978	0.903453	0.425585	-0.051479
04039														-9.564724	2.070620	-0.487212	0.017780	-0.008898	-0.002789	0.806641	-0.346680	0.400391	-0.131297	0.160641	-0.978241	-0.407944	0.890606	0.201003	0.903517	0.425459	-0.051401
04040														-9.581279	2.055060	-0.450949	0.010249	-0.004102	-0.006021	0.808594	-0.344727	0.406982	-0.131238	0.160679	-0.978243	-0.407897	0.890626	0.201010	0.903547	0.425402	-0.051344
04041														-9.499090	2.061772	-0.526353	0.014377	-0.001588	-0.004731	0.804688	-0.350830	0.404785	-0.131215	0.160703	-0.978242	-0.407815	0.890662	0.201017	0.903587	0.425319	-0.051331
04042														-9.495845	2.092327	-0.511687	0.017626	-0.007120	-0.005276	0.812744	-0.344727	0.404785	-0.131143	0.160756	-0.978243	-0.407697	0.890714	0.201028	0.903651	0.425190	-0.051271
04043														-9.470259	2.068861	-0.509335	0.029129	-0.007622	-0.003241	0.802490	-0.342773	0.393799	-0.131071	0.160819	-0.978242	-0.407480	0.890810	0.201042	0.903759	0.424965	-0.051229
04044														-9.510465	2.053522	-0.467691	0.035545	-0.006517	0.002427	0.802490	-0.348877	0.404785	-0.131018	0.160939	-0.978230	-0.407188	0.890928	0.201112	0.903898	0.424673	-0.051196
04045														-9.557836	2.053837	-0.456328	0.027177	-0.006328	0.011097	0.808594	-0.350830	0.404785	-0.131016	0.161124	-0.978199	-0.406970	0.890992	0.201267	0.903997	0.424467	-0.051162
04046														-9.590051	2.015718	-0.487494	0.020309	-0.005611	0.016193	0.808594	-0.344727	0.406982	-0.131047	0.161366	-0.978155	-0.406803	0.891018	0.201492	0.904067	0.424322	-0.051121
04047														-9.639219	2.039906	-0.483927	0.022012	-0.003831	0.013485	0.804688	-0.346924	0.400391	-0.131077	0.161562	-0.978119	-0.406629	0.891056	0.201673	0.904141	0.424166	-0.051101
04048														-9.609902	2.049156	-0.467209	0.019664	-0.005455	0.010732	0.810791	-0.348877	0.404785	-0.131079	0.161750	-0.978088	-0.406469	0.891092	0.201836	0.904213	0.424019	-0.051057
04049														-9.580701	2.057944	-0.450066	0.014559	-0.011210	0.003500	0.806641	-0.346680	0.400391	-0.131002	0.161888	-0.978075	-0.406376	0.891115	0.201924	0.904266	0.423918	-0.050951
04050														-9.538637	2.049832	-0.483390	0.014028	-0.004994	-0.005214	0.806641	-0.342773	0.398193	-0.130941	0.161935	-0.978075	-0.406291	0.891151	0.201936	0.904313	0.423825	-0.050896
04051														-9.557155	2.057298	-0.455001	0.010107	-0.006254	-0.005638	0.800537	-0.342773	0.402588	-0.130871	0.161971	-0.978079	-0.406249	0.891170	0.201936	0.904342	0.423771	-0.050828
04052														-9.567945	2.040841	-0.499295	0.005253	-0.007306	0.001730	0.808838	-0.352783	0.402832	-0.130814	0.162085	-0.978068	-0.406230	0.891161	0.202015	0.904359	0.423746	-0.050732
04053														-9.538807	2.049376	-0.481979	0.007543	-0.008712	0.006108	0.798584	-0.346924	0.398193	-0.130769	0.162235	-0.978049	-0.406196	0.891150	0.202131	0.904381	0.423712	-0.050636
04054														-9.536787	2.026754	-0.473459	0.012830	-0.009070	0.003339	0.806641	-0.350830	0.409424	-0.130710	0.162381	-0.978032	-0.406115	0.891163	0.202234	0.904425	0.423628	-0.050539
04055														-9.538731	2.050054	-0.480599	0.005196	-0.010336	0.003357	0.804688	-0.346924	0.404785	-0.130640	0.162514	-0.978020	-0.406107	0.891146	0.202325	0.904439	0.423612	-0.050422
04056														-9.540694	2.073301	-0.487579	0.008702	-0.011585	0.002053	0.804688	-0.346680	0.391602	-0.130563	0.162651	-0.978007	-0.406059	0.891148	0.202414	0.904472	0.423557	-0.050305
04057														-9.559054	2.081564	-0.458638	-0.002174	-0.007317	0.002612	0.810547	-0.344727	0.398193	-0.130517	0.162765	-0.977994	-0.406118	0.891101	0.202502	0.904452	0.423611	-0.050203
04058														-9.582807	2.081585	-0.452128	0.001048	-0.008933	-0.000800	0.802490	-0.348877	0.400391	-0.130423	0.162872	-0.977989	-0.406145	0.891075	0.202560	0.904453	0.423624	-0.050068
04059														-9.557228	2.058250	-0.449108	0.007699	-0.010911	-0.006763	0.804443	-0.344727	0.400391	-0.130307	0.162917	-0.977997	-0.406127	0.891086	0.202551	0.904478	0.423585	-0.049950
04060														-9.535702	2.080446	-0.461815	0.008988	-0.011642	-0.011200	0.808594	-0.348877	0.402588	-0.130163	0.162939	-0.978013	-0.406095	0.891110	0.202508	0.904513	0.423525	-0.049821
04061														-9.556328	2.110341	-0.440765	0.018267	-0.011629	-0.012304	0.810547	-0.342773	0.400391	-0.130018	0.162938	-0.978032	-0.405989	0.891174	0.202439	0.904582	0.423391	-0.049718
04062														-9.541720	2.069723	-0.482677	0.023549	-0.011988	-0.015075	0.808594	-0.344727	0.398193	-0.129850	0.162924	-0.978057	-0.405827	0.891269	0.202346	0.904679	0.423196	-0.049613
04063														-9.533250	2.107766	-0.445040	0.022203	-0.014286	-0.009009	0.804688	-0.346924	0.400391	-0.129694	0.162963	-0.978071	-0.405680	0.891345	0.202307	0.904767	0.423022	-0.049491
04064														-9.566044	2.067256	-0.475431	0.035113	-0.013379	-0.011802	0.812744	-0.344727	0.404785	-0.129527	0.162987	-0.978089	-0.405411	0.891482	0.202243	0.904911	0.422724	-0.049394
04065														-9.560965	2.074119	-0.452506	0.035107	-0.013380	-0.011801	0.802490	-0.348877	0.400391	-0.129367	0.162997	-0.978108	-0.405152	0.891616	0.202170	0.905050	0.422436	-0.049307
04066														-9.561253	2.072921	-0.451910	0.038965	-0.015148	-0.009751	0.806641	-0.348877	0.398193	-0.129199	0.163045	-0.978123	-0.404845	0.891766	0.202126	0.905212	0.422102	-0.049207
04067														-9.614418	2.063244	-0.462181	0.032879	-0.012868	-0.014932	0.804688	-0.346924	0.404785	-0.129032	0.163026	-0.978148	-0.404609	0.891896	0.202024	0.905341	0.421835	-0.049121
04068														-9.591042	2.061808	-0.467397	0.029373	-0.011619	-0.013627	0.800537	-0.348877	0.402588	-0.128882	0.163027	-0.978167	-0.404397	0.892008	0.201950	0.905457	0.421596	-0.049036
04069														-9.583982	2.045560	-0.436469	0.023598	-0.012885	-0.013823	0.808594	-0.342773	0.404785	-0.128719	0.163018	-0.978190	-0.404244	0.892097	0.201864	0.905548	0.421412	-0.048931
04070														-9.622828	2.073829	-0.490401	0.016333	-0.014670	-0.010443	0.808594	-0.340576	0.402344	-0.128558	0.163056	-0.978205	-0.404143	0.892152	0.201825	0.905617	0.421281	-0.048796
04071														-9.623107	2.072699	-0.489707	0.013145	-0.006109	-0.011541	0.806641	-0.348877	0.404785	-0.128466	0.163038	-0.978220	-0.404081	0.892193	0.201766	0.905657	0.421201	-0.048736
04072														-9.565162	2.088013	-0.455985	0.008812	-0.009885	-0.013680	0.808594	-0.348877	0.402588	-0.128331	0.163025	-0.978240	-0.404050	0.892223	0.201696	0.905690	0.421142	-0.048630
04073														-9.592630	2.055166	-0.464055	0.019778	-0.008093	-0.017505	0.808594	-0.344727	0.395996	-0.128197	0.162963	-0.978268	-0.403936	0.892302	0.201576	0.905760	0.420999	-0.048564
04074														-9.551011	2.045244	-0.497499	0.024920	-0.010596	-0.019892	0.808594	-0.342773	0.402588	-0.128024	0.162905	-0.978301	-0.403772	0.892407	0.201441	0.905858	0.420800	-0.048473
04075														-9.571789	2.074437	-0.477089	0.034886	-0.007694	-0.017173	0.806641	-0.344727	0.402588	-0.127894	0.162843	-0.978328	-0.403521	0.892548	0.201317	0.905988	0.420523	-0.048441
04076														-9.577519	2.064667	-0.499519	0.039445	-0.006573	-0.011296	0.806641	-0.346680	0.400391	-0.127797	0.162838	-0.978341	-0.403209	0.892703	0.201254	0.906140	0.420196	-0.048427
04077														-9.599431	2.040499	-0.485889	0.036098	-0.007094	-0.007496	0.808594	-0.342773	0.404785	-0.127713	0.162861	-0.978349	-0.402934	0.892834	0.201224	0.906275	0.419909	-0.048404
04078														-9.568429	2.025100	-0.461340	0.025185	-0.005860	-0.005303	0.806396	-0.340820	0.400146	-0.127648	0.162908	-0.978349	-0.402746	0.892918	0.201230	0.906368	0.419712	-0.048368
04079														-9.592258	2.024543	-0.455340	0.012294	-0.006771	-0.002500	0.808594	-0.340576	0.400146	-0.127586	0.162974	-0.978346	-0.402680	0.892941	0.201260	0.906405	0.419639	-0.048300
04080														-9.586916	2.032566	-0.432717	0.007073	-0.003384	-0.001361	0.810547	-0.344727	0.404785	-0.127550	0.163043	-0.978339	-0.402647	0.892945	0.201306	0.906425	0.419602	-0.048247
04081														-9.568740	2.023822	-0.460515	0.011354	-0.007006	-0.010067	0.806396	-0.342773	0.404785	-0.127456	0.163042	-0.978352	-0.402599	0.892976	0.201263	0.906459	0.419536	-0.048175
04082														-9.571014	2.045773	-0.468280	0.015395	-0.003600	-0.010041	0.808594	-0.342773	0.400391	-0.127395	0.163034	-0.978361	-0.402503	0.893029	0.201225	0.906511	0.419428	-0.048146
04083														-9.571255	2.044654	-0.468245	0.020742	-0.004846	-0.011567	0.806641	-0.344727	0.404785	-0.127314	0.163010	-0.978376	-0.402372	0.893101	0.201163	0.906580	0.419282	-0.048114
04084														-9.566107	2.051699	-0.445983	0.020869	-0.002705	-0.011955	0.810547	-0.340576	0.400146	-0.127251	0.162984	-0.978388	-0.402230	0.893179	0.201104	0.906652	0.419128	-0.048101
04085														-9.566340	2.050577	-0.446154	0.019302	-0.002335	-0.009626	0.806641	-0.344727	0.400391	-0.127200	0.162967	-0.978397	-0.402110	0.893242	0.201061	0.906712	0.418999	-0.048090
04086														-9.566506	2.049775	-0.446283	0.021598	-0.003725	-0.005246	0.812500	-0.342529	0.404785	-0.127148	0.163006	-0.978398	-0.401953	0.893312	0.201067	0.906790	0.418835	-0.048062
04087														-9.590316	2.049250	-0.440461	0.021834	-0.006376	-0.001502	0.808594	-0.342773	0.400391	-0.127094	0.163079	-0.978393	-0.401800	0.893373	0.201102	0.906865	0.418677	-0.048017
04088														-9.590339	2.049166	-0.440361	0.020475	-0.004748	0.001686	0.808594	-0.338623	0.395752	-0.127063	0.163182	-0.978380	-0.401642	0.893427	0.201174	0.906939	0.418520	-0.047981
04089														-9.590354	2.049165	-0.440031	0.023503	-0.011539	0.000303	0.806641	-0.346680	0.400391	-0.126969	0.163292	-0.978373	-0.401471	0.893492	0.201227	0.907028	0.418338	-0.047889
04090														-9.590371	2.049201	-0.439493	0.020214	-0.009031	0.002465	0.802490	-0.340820	0.404541	-0.126897	0.163425	-0.978361	-0.401318	0.893543	0.201309	0.907106	0.418179	-0.047802
04091														-9.599141	2.009764	-0.475455	0.019875	-0.012430	0.001997	0.810547	-0.340576	0.397949	-0.126801	0.163554	-0.978351	-0.401178	0.893590	0.201380	0.907181	0.418029	-0.047694
04092														-9.588385	2.026198	-0.430027	0.013587	-0.011427	-0.004044	0.810547	-0.340576	0.395752	-0.126686	0.163632	-0.978353	-0.401089	0.893625	0.201398	0.907237	0.417921	-0.047579
04093														-9.593954	2.017338	-0.451578	0.011577	-0.009665	-0.006317	0.810547	-0.344727	0.402588	-0.126583	0.163676	-0.978359	-0.401035	0.893651	0.201391	0.907275	0.417849	-0.047481
04094														-9.588728	2.024871	-0.428627	0.003935	-0.007032	-0.009171	0.812500	-0.338623	0.395752	-0.126482	0.163694	-0.978369	-0.401043	0.893653	0.201366	0.907285	0.417837	-0.047382
04095														-9.552327	2.007717	-0.484141	0.006023	-0.009676	-0.005648	0.804688	-0.346924	0.398193	-0.126381	0.163744	-0.978374	-0.401038	0.893655	0.201369	0.907302	0.417815	-0.047273
04096														-9.547089	2.015329	-0.461100	0.000232	-0.007040	-0.008724	0.804443	-0.344727	0.402588	-0.126279	0.163768	-0.978383	-0.401081	0.893640	0.201351	0.907297	0.417838	-0.047164
04097														-9.549336	2.037555	-0.468726	0.010190	-0.004127	-0.006018	0.802490	-0.344971	0.400391	-0.126227	0.163791	-0.978386	-0.401039	0.893659	0.201348	0.907322	0.417787	-0.047117
04098														-9.547387	2.014122	-0.460213	0.011942	-0.010171	-0.002963	0.804443	-0.342773	0.400391	-0.126138	0.163880	-0.978383	-0.400970	0.893681	0.201387	0.907366	0.417705	-0.047016
04099														-9.596991	2.036523	-0.456008	0.010219	-0.008034	-0.003130	0.812744	-0.344727	0.402588	-0.126062	0.163945	-0.978382	-0.400924	0.893696	0.201412	0.907396	0.417647	-0.046931
04100														-9.620802	2.036105	-0.449511	0.008239	-0.010179	-0.002516	0.804443	-0.342773	0.400391	-0.125967	0.164035	-0.978379	-0.400885	0.893704	0.201453	0.907427	0.417594	-0.046818
04101														-9.620903	2.035811	-0.448684	0.002608	-0.009309	-0.003094	0.804688	-0.350830	0.400391	-0.125880	0.164106	-0.978378	-0.400908	0.893687	0.201482	0.907429	0.417603	-0.046706
04102														-9.595243	2.012541	-0.445559	-0.003312	-0.008815	-0.005778	0.804443	-0.340820	0.397949	-0.125791	0.164167	-0.978379	-0.400984	0.893649	0.201505	0.907408	0.417662	-0.046584
04103														-9.555503	2.026838	-0.486455	-0.005501	-0.012220	-0.006021	0.810547	-0.342529	0.395996	-0.125665	0.164224	-0.978386	-0.401084	0.893602	0.201509	0.907381	0.417738	-0.046427
04104														-9.497354	2.043304	-0.452367	-0.008575	-0.008452	-0.003001	0.812744	-0.342529	0.391602	-0.125576	0.164304	-0.978384	-0.401198	0.893542	0.201550	0.907343	0.417836	-0.046289
04105														-9.546912	2.065989	-0.447843	-0.007998	-0.007699	0.001211	0.806641	-0.344727	0.400391	-0.125520	0.164406	-0.978374	-0.401312	0.893474	0.201626	0.907300	0.417941	-0.046171
04106														-9.544866	2.043043	-0.438925	-0.002736	-0.008063	-0.001566	0.808594	-0.344727	0.393799	-0.125438	0.164500	-0.978368	-0.401374	0.893434	0.201680	0.907284	0.417990	-0.046045
04107														-9.544977	2.042687	-0.438161	-0.003186	-0.006674	-0.006169	0.810547	-0.344727	0.393799	-0.125363	0.164533	-0.978373	-0.401453	0.893398	0.201682	0.907259	0.418054	-0.045947
04108														-9.515967	2.050594	-0.421114	-0.006549	-0.003283	-0.005255	0.808594	-0.342773	0.393799	-0.125307	0.164577	-0.978372	-0.401556	0.893346	0.201704	0.907221	0.418147	-0.045855
04109														-9.539754	2.050192	-0.414901	-0.004120	-0.002526	-0.001267	0.810791	-0.346680	0.395996	-0.125288	0.164636	-0.978365	-0.401638	0.893298	0.201754	0.907188	0.418226	-0.045796
04110														-9.618426	2.064486	-0.427377	-0.002108	-0.004287	0.001006	0.812744	-0.346680	0.395996	-0.125251	0.164739	-0.978352	-0.401692	0.893256	0.201835	0.907169	0.418277	-0.045707
04111														-9.642090	2.064722	-0.420840	-0.000066	-0.009955	0.006166	0.810547	-0.338623	0.400146	-0.125195	0.164895	-0.978333	-0.401728	0.893212	0.201956	0.907161	0.418308	-0.045582
04112														-9.636551	2.073645	-0.397682	0.003845	-0.008688	0.006576	0.810547	-0.344727	0.391602	-0.125141	0.165060	-0.978312	-0.401716	0.893189	0.202083	0.907174	0.418293	-0.045468
04113														-9.596554	2.089244	-0.438774	0.005726	-0.012590	0.009239	0.806641	-0.342773	0.400391	-0.125074	0.165254	-0.978288	-0.401695	0.893165	0.202232	0.907192	0.418268	-0.045330
04114														-9.596458	2.089939	-0.437556	0.010647	-0.016354	0.005994	0.812744	-0.346680	0.400391	-0.124949	0.165449	-0.978271	-0.401625	0.893169	0.202354	0.907240	0.418182	-0.045152
04115														-9.557885	2.050782	-0.484484	0.015536	-0.016212	-0.000140	0.814697	-0.344727	0.400391	-0.124811	0.165575	-0.978267	-0.401527	0.893201	0.202406	0.907303	0.418063	-0.044998
04116														-9.526707	2.036148	-0.458971	0.021425	-0.012800	-0.000348	0.810547	-0.340576	0.411377	-0.124699	0.165696	-0.978261	-0.401365	0.893261	0.202461	0.907390	0.417887	-0.044884
04117														-9.530137	2.004764	-0.472494	0.023483	-0.011537	0.000284	0.814697	-0.344727	0.400391	-0.124605	0.165806	-0.978255	-0.401195	0.893326	0.202514	0.907478	0.417705	-0.044792
04118														-9.532282	2.027598	-0.479938	0.019700	-0.010663	-0.000514	0.808594	-0.342773	0.404785	-0.124520	0.165908	-0.978248	-0.401042	0.893383	0.202563	0.907557	0.417541	-0.044708
04119														-9.528902	2.059073	-0.464978	0.003632	-0.009945	0.005722	0.810547	-0.344727	0.398193	-0.124462	0.166060	-0.978230	-0.401045	0.893356	0.202678	0.907564	0.417539	-0.044592
04120														-9.545018	2.044707	-0.427727	-0.021239	-0.008103	0.000690	0.810547	-0.344727	0.400391	-0.124402	0.166167	-0.978219	-0.401266	0.893238	0.202761	0.907474	0.417750	-0.044443
04121														-9.550540	2.036385	-0.448857	-0.032663	-0.004597	-0.002954	0.808594	-0.344727	0.398193	-0.124358	0.166219	-0.978216	-0.401609	0.893073	0.202807	0.907329	0.418081	-0.044306
04122														-9.602199	2.082001	-0.452069	-0.040068	-0.004614	-0.002052	0.806641	-0.342773	0.400391	-0.124315	0.166290	-0.978209	-0.402007	0.892879	0.202873	0.907158	0.418467	-0.044149
04123														-9.602285	2.081851	-0.450931	-0.030902	-0.003712	-0.004427	0.812744	-0.346680	0.395996	-0.124273	0.166325	-0.978209	-0.402336	0.892724	0.202904	0.907018	0.418784	-0.044023
04124														-9.604523	2.104346	-0.458084	-0.014459	-0.004933	-0.007312	0.804443	-0.342773	0.395996	-0.124205	0.166351	-0.978213	-0.402508	0.892646	0.202906	0.906951	0.418940	-0.043914
04125														-9.542213	2.074386	-0.408267	0.003285	-0.010807	-0.011748	0.810547	-0.346680	0.398193	-0.124069	0.166351	-0.978230	-0.402535	0.892646	0.202850	0.906958	0.418940	-0.043788
04126														-9.555597	2.079369	-0.460066	0.017797	-0.011148	-0.015658	0.812744	-0.344727	0.404785	-0.123911	0.166328	-0.978254	-0.402426	0.892716	0.202758	0.907028	0.418799	-0.043683
04127														-9.540772	2.048680	-0.398628	0.027370	-0.014657	-0.011792	0.806641	-0.344727	0.393799	-0.123741	0.166344	-0.978273	-0.402235	0.892818	0.202691	0.907136	0.418577	-0.043568
04128														-9.519474	2.070557	-0.411776	0.027576	-0.013399	-0.010935	0.804688	-0.346924	0.395996	-0.123584	0.166371	-0.978288	-0.402029	0.892922	0.202640	0.907248	0.418343	-0.043465
04129														-9.567070	2.069573	-0.399081	0.018940	-0.016576	-0.002705	0.810791	-0.346680	0.395996	-0.123432	0.166476	-0.978289	-0.401904	0.892972	0.202666	0.907325	0.418194	-0.043314
04130														-9.572646	2.061064	-0.420114	0.011831	-0.016218	0.000304	0.808594	-0.344727	0.402588	-0.123294	0.166622	-0.978282	-0.401832	0.892988	0.202738	0.907375	0.418102	-0.043146
04131														-9.565135	2.046285	-0.388427	0.002126	-0.014853	-0.003168	0.810791	-0.346680	0.393799	-0.123156	0.166715	-0.978284	-0.401860	0.892969	0.202766	0.907381	0.418105	-0.042978
04132														-9.517883	2.046171	-0.398724	-0.005567	-0.015248	-0.004368	0.810791	-0.348633	0.395996	-0.123009	0.166811	-0.978286	-0.401949	0.892923	0.202796	0.907362	0.418167	-0.042788
04133														-9.494360	2.045814	-0.403008	-0.007711	-0.015630	-0.006247	0.810547	-0.344727	0.395996	-0.122852	0.166880	-0.978294	-0.402070	0.892868	0.202799	0.907330	0.418256	-0.042593
04134														-9.525885	2.059608	-0.426032	-0.000264	-0.012587	-0.008794	0.804443	-0.342773	0.398193	-0.122708	0.166928	-0.978304	-0.402118	0.892849	0.202784	0.907328	0.418277	-0.042435
04135														-9.555311	2.050312	-0.441211	-0.000265	-0.012587	-0.008794	0.808350	-0.338623	0.400146	-0.122568	0.166962	-0.978315	-0.402174	0.892830	0.202759	0.907322	0.418305	-0.042284
04136														-9.597363	2.057790	-0.406188	0.013774	-0.010164	-0.003208	0.810547	-0.342529	0.395996	-0.122473	0.167038	-0.978314	-0.402078	0.892867	0.202784	0.907377	0.418195	-0.042190
04137														-9.599651	2.080142	-0.413554	0.016885	-0.010908	-0.007872	0.810547	-0.342529	0.393799	-0.122352	0.167073	-0.978323	-0.401978	0.892918	0.202760	0.907438	0.418073	-0.042090
04138														-9.599801	2.079578	-0.412896	0.025033	-0.011899	-0.002072	0.814697	-0.346680	0.395996	-0.122236	0.167173	-0.978321	-0.401783	0.892998	0.202794	0.907540	0.417861	-0.041989
04139														-9.576157	2.079598	-0.418307	0.023898	-0.009008	0.001973	0.804688	-0.344727	0.393799	-0.122171	0.167288	-0.978309	-0.401607	0.893061	0.202863	0.907627	0.417680	-0.041922
04140														-9.574043	2.056646	-0.409807	0.016123	-0.008523	-0.000472	0.814697	-0.342529	0.398193	-0.122097	0.167393	-0.978301	-0.401495	0.893098	0.202923	0.907686	0.417560	-0.041837
04141														-9.575308	2.002400	-0.415416	0.008938	-0.007283	0.001292	0.810547	-0.346680	0.398193	-0.122045	0.167494	-0.978290	-0.401456	0.893100	0.202992	0.907710	0.417514	-0.041757
04142														-9.575299	2.002575	-0.414786	-0.002157	-0.007311	0.002656	0.812744	-0.346680	0.393799	-0.121997	0.167617	-0.978275	-0.401502	0.893058	0.203086	0.907696	0.417555	-0.041652
04143														-9.546078	2.011338	-0.397467	-0.008046	-0.010727	0.002875	0.804688	-0.348877	0.398193	-0.121921	0.167747	-0.978262	-0.401615	0.892986	0.203177	0.907657	0.417656	-0.041504
04144														-9.577456	2.025826	-0.420896	-0.010306	-0.006322	-0.003143	0.810547	-0.342773	0.402588	-0.121861	0.167820	-0.978257	-0.401749	0.892915	0.203226	0.907605	0.417779	-0.041390
04145														-9.570777	2.088207	-0.391543	-0.032663	-0.004616	-0.002911	0.808594	-0.348877	0.395996	-0.121817	0.167873	-0.978253	-0.402092	0.892750	0.203271	0.907459	0.418110	-0.041252
04146														-9.547197	2.088087	-0.396196	-0.038722	-0.006268	-0.005189	0.808594	-0.342773	0.395996	-0.121754	0.167922	-0.978253	-0.402481	0.892567	0.203306	0.907296	0.418481	-0.041088
04147														-9.567702	2.118570	-0.374773	-0.041201	-0.003122	-0.012061	0.808594	-0.342773	0.398193	-0.121687	0.167886	-0.978267	-0.402912	0.892382	0.203265	0.907113	0.418891	-0.040947
04148														-9.570123	2.140469	-0.381681	-0.024605	-0.006100	-0.012469	0.810547	-0.342529	0.395996	-0.121589	0.167866	-0.978283	-0.403178	0.892272	0.203218	0.907008	0.419131	-0.040811
04149														-9.520951	2.116434	-0.384508	-0.000982	-0.008549	-0.017143	0.810547	-0.344727	0.395996	-0.121452	0.167809	-0.978310	-0.403251	0.892264	0.203111	0.906994	0.419172	-0.040698
04150														-9.515814	2.123203	-0.361265	0.017505	-0.015426	-0.014893	0.808594	-0.346680	0.393799	-0.121258	0.167807	-0.978334	-0.403139	0.892335	0.203023	0.907070	0.419022	-0.040553
04151														-9.527216	2.105131	-0.404777	0.021497	-0.015039	-0.013244	0.812744	-0.346680	0.389404	-0.121078	0.167812	-0.978355	-0.403003	0.892414	0.202945	0.907154	0.418852	-0.040423
04152														-9.492834	2.120570	-0.365042	0.023002	-0.018435	-0.013936	0.808594	-0.342773	0.395996	-0.120856	0.167840	-0.978378	-0.402847	0.892501	0.202870	0.907253	0.418654	-0.040250
04153														-9.425536	2.088278	-0.395638	0.018874	-0.020966	-0.015192	0.804443	-0.340820	0.393555	-0.120614	0.167852	-0.978406	-0.402737	0.892572	0.202774	0.907334	0.418498	-0.040056
04154														-9.460657	2.070092	-0.432374	0.024409	-0.027880	-0.011345	0.816650	-0.342529	0.393799	-0.120323	0.167934	-0.978428	-0.402557	0.892666	0.202719	0.907453	0.418265	-0.039805
04155														-9.453308	2.054312	-0.399701	0.033260	-0.034277	-0.011309	0.812744	-0.344727	0.393799	-0.119975	0.168036	-0.978453	-0.402312	0.892791	0.202655	0.907607	0.417957	-0.039510
04156														-9.536947	1.981880	-0.429690	0.040851	-0.039925	-0.006835	0.816650	-0.338379	0.389160	-0.119586	0.168211	-0.978470	-0.401979	0.892945	0.202637	0.907806	0.417557	-0.039166
04157														-9.533876	2.012476	-0.412141	0.033057	-0.046376	-0.004735	0.810547	-0.340576	0.389160	-0.119155	0.168422	-0.978487	-0.401728	0.893058	0.202638	0.907974	0.417231	-0.038753
04158														-9.605104	2.011799	-0.390191	0.015031	-0.047820	0.002166	0.810791	-0.346680	0.395996	-0.118719	0.168708	-0.978490	-0.401616	0.893092	0.202711	0.908081	0.417043	-0.038271
04159														-9.658128	2.003458	-0.395913	-0.009004	-0.047897	0.005158	0.810547	-0.342773	0.398193	-0.118314	0.169013	-0.978487	-0.401735	0.893012	0.202825	0.908081	0.417090	-0.037757
04160														-9.650043	2.033614	-0.457799	-0.024703	-0.043791	0.011903	0.816650	-0.342529	0.393799	-0.117979	0.169370	-0.978465	-0.401975	0.892860	0.203020	0.908018	0.417271	-0.037257
04161														-9.628537	2.057924	-0.467284	-0.022733	-0.041644	0.011279	0.810547	-0.344727	0.393799	-0.117656	0.169704	-0.978447	-0.402212	0.892713	0.203199	0.907955	0.417450	-0.036776
04162														-9.634042	2.050965	-0.485463	-0.017750	-0.034072	0.015948	0.812744	-0.348633	0.389404	-0.117417	0.170056	-0.978414	-0.402383	0.892584	0.203427	0.907910	0.417583	-0.036377
04163														-9.657544	2.052360	-0.476002	-0.002752	-0.032769	0.014950	0.812744	-0.346680	0.382813	-0.117189	0.170385	-0.978384	-0.402434	0.892514	0.203634	0.907917	0.417598	-0.036024
04164														-9.631493	2.031197	-0.470985	-0.003740	-0.027734	0.018603	0.812744	-0.344482	0.389404	-0.117010	0.170746	-0.978343	-0.402484	0.892432	0.203890	0.907918	0.417625	-0.035701
04165														-9.617717	2.027074	-0.415865	-0.021231	-0.020604	0.023953	0.814697	-0.344482	0.391602	-0.116929	0.171105	-0.978290	-0.402692	0.892269	0.204191	0.907836	0.417826	-0.035429
04166														-9.637427	2.061056	-0.393164	-0.046169	-0.016520	0.031879	0.810791	-0.346680	0.389404	-0.116910	0.171527	-0.978218	-0.403104	0.891994	0.204584	0.907656	0.418241	-0.035140
04167														-9.620074	2.002077	-0.425010	-0.068022	-0.013180	0.035136	0.816650	-0.346436	0.389404	-0.116942	0.171955	-0.978139	-0.403724	0.891615	0.205012	0.907376	0.418872	-0.034845
04168														-9.639643	2.036632	-0.402339	-0.075726	-0.006645	0.029435	0.814697	-0.348633	0.393799	-0.117003	0.172316	-0.978068	-0.404408	0.891217	0.205392	0.907064	0.419570	-0.034589
04169														-9.629107	2.002034	-0.361797	-0.072484	-0.009158	0.027259	0.808594	-0.346680	0.391602	-0.117040	0.172657	-0.978004	-0.405077	0.890832	0.205744	0.906760	0.420247	-0.034324
04170														-9.672419	2.035791	-0.333303	-0.065051	-0.006116	0.024690	0.810547	-0.342529	0.387207	-0.117097	0.172969	-0.977942	-0.405667	0.890487	0.206075	0.906489	0.420849	-0.034106
04171														-9.671998	2.038109	-0.331338	-0.060335	-0.008112	0.018926	0.810547	-0.344727	0.387207	-0.117110	0.173231	-0.977894	-0.406235	0.890167	0.206340	0.906233	0.421419	-0.033875
04172														-9.610841	2.033922	-0.289175	-0.063563	-0.002579	0.019472	0.810791	-0.348633	0.393799	-0.117164	0.173479	-0.977843	-0.406813	0.889840	0.206611	0.905967	0.422007	-0.033684
04173														-9.565316	2.059130	-0.307707	-0.071153	-0.000829	0.017914	0.812744	-0.348633	0.393799	-0.117240	0.173702	-0.977795	-0.407480	0.889474	0.206870	0.905657	0.422685	-0.033502
04174														-9.541348	2.060961	-0.312163	-0.077415	-0.000705	0.013160	0.812744	-0.350586	0.393799	-0.117302	0.173885	-0.977755	-0.408192	0.889097	0.207089	0.905328	0.423404	-0.033315
04175														-9.594081	2.053817	-0.320986	-0.060706	0.002363	0.009427	0.814697	-0.348633	0.387207	-0.117372	0.174018	-0.977723	-0.408774	0.888790	0.207261	0.905057	0.423994	-0.033185
04176														-9.588236	2.062934	-0.298020	-0.051263	0.007558	0.006240	0.814941	-0.352539	0.387451	-0.117474	0.174107	-0.977695	-0.409258	0.888534	0.207403	0.904825	0.424494	-0.033125
04177														-9.591680	2.032202	-0.312034	-0.033610	0.002576	0.000467	0.810791	-0.348633	0.385010	-0.117509	0.174159	-0.977681	-0.409605	0.888356	0.207479	0.904663	0.424843	-0.033054
04178														-9.609686	2.040161	-0.283562	-0.039234	0.010398	-0.004586	0.811035	-0.356689	0.378662	-0.117587	0.174144	-0.977674	-0.409996	0.888168	0.207512	0.904476	0.425243	-0.033038
04179														-9.574850	2.055926	-0.245133	-0.049579	0.011039	-0.012226	0.810791	-0.352783	0.387207	-0.117646	0.174048	-0.977684	-0.410502	0.887944	0.207469	0.904239	0.425749	-0.033016
04180														-9.557155	2.046546	-0.273330	-0.061920	0.009532	-0.019247	0.812744	-0.348633	0.389404	-0.117656	0.173915	-0.977707	-0.411123	0.887679	0.207374	0.903955	0.426357	-0.032940
04181														-9.559733	2.067602	-0.280824	-0.066414	0.010558	-0.025480	0.808838	-0.350830	0.385010	-0.117656	0.173703	-0.977745	-0.411796	0.887406	0.207207	0.903649	0.427011	-0.032879
04182														-9.542300	2.057049	-0.308858	-0.054266	0.008605	-0.032184	0.812744	-0.348633	0.382813	-0.117607	0.173447	-0.977796	-0.412353	0.887202	0.206973	0.903401	0.427538	-0.032820
04183														-9.557473	2.093152	-0.265727	-0.041426	0.006503	-0.033433	0.812988	-0.352539	0.380615	-0.117538	0.173182	-0.977851	-0.412809	0.887049	0.206720	0.903202	0.427964	-0.032771
04184														-9.563798	2.081951	-0.287866	-0.032073	0.005645	-0.033354	0.808838	-0.352783	0.387207	-0.117446	0.172934	-0.977906	-0.413171	0.886939	0.206468	0.903049	0.428291	-0.032716
04185														-9.561026	2.109898	-0.273418	-0.022667	0.007824	-0.034902	0.808838	-0.352783	0.385010	-0.117382	0.172650	-0.977964	-0.413459	0.886868	0.206194	0.902925	0.428552	-0.032719
04186														-9.596592	2.090595	-0.312006	-0.031532	0.003340	-0.027515	0.810791	-0.346680	0.382813	-0.117309	0.172463	-0.978006	-0.413810	0.886749	0.206006	0.902774	0.428875	-0.032656
04187														-9.597146	2.088068	-0.311881	-0.040421	0.009734	-0.027493	0.814941	-0.350586	0.385010	-0.117293	0.172237	-0.978047	-0.414250	0.886588	0.205810	0.902574	0.429296	-0.032641
04188														-9.550340	2.086152	-0.324085	-0.043623	0.011337	-0.024056	0.814941	-0.350586	0.385010	-0.117294	0.172043	-0.978082	-0.414700	0.886415	0.205650	0.902367	0.429732	-0.032625
04189														-9.577834	2.052854	-0.333042	-0.038965	0.015482	-0.019826	0.814697	-0.348633	0.385010	-0.117361	0.171860	-0.978106	-0.415118	0.886248	0.205529	0.902166	0.430150	-0.032669
04190														-9.604028	2.073992	-0.335456	-0.027575	0.012863	-0.017494	0.812744	-0.348633	0.389404	-0.117404	0.171717	-0.978126	-0.415416	0.886132	0.205428	0.902023	0.430447	-0.032702
04191														-9.580653	2.072811	-0.342103	-0.029049	0.012328	-0.013911	0.808594	-0.346680	0.391602	-0.117468	0.171599	-0.978139	-0.415737	0.885996	0.205362	0.901867	0.430772	-0.032736
04192														-9.567492	2.064606	-0.290002	-0.042575	0.010644	-0.015251	0.808838	-0.352783	0.385010	-0.117512	0.171478	-0.978154	-0.416161	0.885815	0.205286	0.901666	0.431193	-0.032731
04193														-9.567744	2.063427	-0.290075	-0.068330	0.014802	-0.012750	0.808838	-0.354736	0.385254	-0.117603	0.171361	-0.978164	-0.416835	0.885507	0.205244	0.901342	0.431870	-0.032709
04194														-9.546473	2.085946	-0.303496	-0.081318	0.010803	-0.008257	0.814941	-0.354736	0.383057	-0.117677	0.171314	-0.978163	-0.417612	0.885137	0.205262	0.900973	0.432647	-0.032617
04195														-9.535349	2.101718	-0.258193	-0.089686	0.014874	-0.002390	0.812988	-0.354736	0.380859	-0.117811	0.171288	-0.978152	-0.418466	0.884719	0.205327	0.900559	0.433513	-0.032552
04196														-9.580225	2.123609	-0.334286	-0.080331	0.014027	-0.002307	0.808838	-0.356689	0.387451	-0.117928	0.171282	-0.978139	-0.419227	0.884341	0.205401	0.900190	0.434285	-0.032483
04197														-9.550941	2.132034	-0.317600	-0.068721	0.012661	0.000891	0.812744	-0.352783	0.391846	-0.118057	0.171294	-0.978121	-0.419888	0.884006	0.205491	0.899865	0.434961	-0.032438
04198														-9.576788	2.154973	-0.319076	-0.059737	0.012351	-0.002376	0.810791	-0.352783	0.385010	-0.118176	0.171287	-0.978108	-0.420458	0.883720	0.205558	0.899583	0.435545	-0.032416
04199														-9.539685	2.148348	-0.272532	-0.051447	0.010431	0.004633	0.810791	-0.350586	0.385010	-0.118300	0.171341	-0.978083	-0.420958	0.883454	0.205679	0.899333	0.436064	-0.032385
04200														-9.521512	2.141112	-0.300842	-0.051844	0.010963	0.001286	0.810791	-0.354736	0.383057	-0.118410	0.171371	-0.978065	-0.421450	0.883198	0.205772	0.899088	0.436571	-0.032355
04201														-9.521394	2.141682	-0.300527	-0.058959	0.007343	0.007177	0.811035	-0.358643	0.378662	-0.118517	0.171462	-0.978036	-0.422014	0.882893	0.205921	0.898809	0.437150	-0.032279
04202														-9.563015	2.149678	-0.265567	-0.068840	0.009610	0.002511	0.811035	-0.356689	0.383057	-0.118618	0.171518	-0.978014	-0.422666	0.882554	0.206039	0.898490	0.437813	-0.032192
04203														-9.534961	2.103798	-0.255601	-0.077730	0.006883	-0.005858	0.812988	-0.358643	0.380859	-0.118665	0.171495	-0.978012	-0.423414	0.882189	0.206067	0.898131	0.438557	-0.032072
04204														-9.482209	2.111648	-0.244320	-0.083768	0.011321	-0.011356	0.810791	-0.350586	0.380615	-0.118725	0.171421	-0.978018	-0.424214	0.881807	0.206054	0.897745	0.439353	-0.031973
04205														-9.500602	2.117951	-0.215145	-0.079324	0.009034	-0.019242	0.810791	-0.352783	0.380615	-0.118735	0.171270	-0.978043	-0.424992	0.881457	0.205951	0.897376	0.440114	-0.031871
04206														-9.526894	2.138966	-0.215952	-0.066514	0.007863	-0.021733	0.808838	-0.356689	0.383057	-0.118711	0.171111	-0.978074	-0.425641	0.881174	0.205819	0.897072	0.440742	-0.031773
04207														-9.582452	2.151702	-0.233359	-0.051444	0.006166	-0.021111	0.806885	-0.356934	0.385254	-0.118687	0.170957	-0.978104	-0.426171	0.880949	0.205689	0.896823	0.441252	-0.031700
04208														-9.632423	2.172387	-0.228200	-0.038403	-0.000731	-0.018284	0.808838	-0.356689	0.380859	-0.118617	0.170869	-0.978128	-0.426567	0.880779	0.205593	0.896644	0.441624	-0.031588
04209														-9.621600	2.186786	-0.182181	-0.035725	-0.005748	-0.008979	0.814941	-0.356689	0.389648	-0.118538	0.170875	-0.978136	-0.426941	0.880602	0.205576	0.896476	0.441975	-0.031431
04210														-9.632985	2.170163	-0.225650	-0.032734	-0.008575	-0.013293	0.812988	-0.354736	0.383057	-0.118416	0.170864	-0.978153	-0.427279	0.880450	0.205524	0.896332	0.442281	-0.031253
04211														-9.597131	2.153860	-0.280973	-0.027661	-0.010139	-0.016969	0.806885	-0.354736	0.385254	-0.118264	0.170819	-0.978179	-0.427590	0.880322	0.205426	0.896204	0.442554	-0.031070
04212														-9.569402	2.106337	-0.270518	-0.020203	-0.010086	-0.017897	0.811035	-0.358643	0.378662	-0.118108	0.170772	-0.978206	-0.427818	0.880235	0.205323	0.896115	0.442745	-0.030903
04213														-9.551692	2.097299	-0.297655	-0.014306	-0.009693	-0.016485	0.808838	-0.352783	0.385010	-0.117961	0.170729	-0.978231	-0.428009	0.880165	0.205225	0.896043	0.442900	-0.030752
