// Start Time: Unknown
// Update Rate: 100.0Hz
// Filter Profile: human (46.1)
// Option Flags: AHS Disabled ICC Disabled 
// Firmware Version: 4.0.2
PacketCounter	SampleTimeFine	Year	Month	Day	Second	UTC_Nano	UTC_Year	UTC_Month	UTC_Day	UTC_Hour	UTC_Minute	UTC_Second	UTC_Valid	Acc_X	Acc_Y	Acc_Z	Gyr_X	Gyr_Y	Gyr_Z	Mag_X	Mag_Y	Mag_Z	Mat[1][1]	Mat[2][1]	Mat[3][1]	Mat[1][2]	Mat[2][2]	Mat[3][2]	Mat[1][3]	Mat[2][3]	Mat[3][3]
03583														9.020794	-0.130023	-3.824330	-0.031309	0.000037	-0.000857	-0.848877	-0.318848	0.314941	-0.065358	-0.381637	0.921999	-0.993208	0.114013	-0.023214	-0.096260	-0.917254	-0.386496
03584														9.035833	-0.139467	-3.795241	-0.030200	-0.000443	-0.002686	-0.846924	-0.314697	0.314941	-0.065320	-0.381636	0.922002	-0.993165	0.114435	-0.022994	-0.096734	-0.917202	-0.386502
03585														9.035824	-0.138265	-3.795306	-0.023306	-0.000184	-0.001456	-0.844482	-0.316650	0.317139	-0.065298	-0.381631	0.922005	-0.993126	0.114801	-0.022817	-0.097139	-0.917158	-0.386504
03586														9.069076	-0.129925	-3.789154	-0.024599	0.003375	-0.000364	-0.846924	-0.314697	0.317139	-0.065278	-0.381594	0.922022	-0.993087	0.115177	-0.022642	-0.097556	-0.917126	-0.386475
03587														9.098782	-0.146661	-3.831217	-0.020455	0.002664	-0.003003	-0.846680	-0.316650	0.312500	-0.065238	-0.381566	0.922037	-0.993052	0.115510	-0.022461	-0.097934	-0.917096	-0.386450
03588														9.062893	-0.131438	-3.848112	-0.018432	0.001368	-0.001615	-0.846680	-0.318848	0.314941	-0.065211	-0.381546	0.922047	-0.993019	0.115830	-0.022299	-0.098293	-0.917064	-0.386436
03589														9.077979	-0.141353	-3.818905	-0.014289	0.000659	-0.004253	-0.848877	-0.318848	0.307861	-0.065160	-0.381538	0.922054	-0.992991	0.116102	-0.022131	-0.098609	-0.917033	-0.386429
03590														9.062950	-0.129484	-3.848042	-0.012074	-0.000297	-0.007911	-0.848633	-0.323242	0.312500	-0.065072	-0.381536	0.922061	-0.992966	0.116352	-0.021931	-0.098917	-0.917002	-0.386423
03591														9.072362	-0.095938	-3.841090	-0.008851	-0.003610	-0.007984	-0.849121	-0.314697	0.312500	-0.064988	-0.381571	0.922052	-0.992945	0.116560	-0.021749	-0.099176	-0.916961	-0.386454
03592														9.066432	-0.102226	-3.800012	-0.003060	0.000550	-0.010708	-0.851074	-0.316650	0.312500	-0.064871	-0.381566	0.922063	-0.992932	0.116714	-0.021559	-0.099391	-0.916944	-0.386440
03593														9.042684	-0.076129	-3.799017	0.000163	-0.002763	-0.010781	-0.846924	-0.314697	0.317139	-0.064759	-0.381596	0.922058	-0.992922	0.116828	-0.021386	-0.099562	-0.916916	-0.386461
03594														9.051365	-0.089393	-3.829239	0.007379	0.002824	-0.014277	-0.849121	-0.314697	0.322021	-0.064608	-0.381577	0.922076	-0.992921	0.116866	-0.021210	-0.099666	-0.916919	-0.386427
03595														9.072355	-0.091864	-3.841206	0.007566	-0.000258	-0.013541	-0.846680	-0.316650	0.307861	-0.064466	-0.381588	0.922082	-0.992921	0.116902	-0.021041	-0.099764	-0.916910	-0.386423
03596														9.063734	-0.076676	-3.810876	0.013451	0.002362	-0.015896	-0.842041	-0.321045	0.312500	-0.064298	-0.381576	0.922098	-0.992927	0.116875	-0.020873	-0.099805	-0.916919	-0.386392
03597														9.009698	-0.079786	-3.804668	0.015474	0.001067	-0.014508	-0.851074	-0.316650	0.312500	-0.064145	-0.381576	0.922109	-0.992935	0.116835	-0.020725	-0.099826	-0.916924	-0.386375
03598														9.054439	-0.107573	-3.817673	0.019935	0.002262	-0.016090	-0.846680	-0.321045	0.317383	-0.063972	-0.381563	0.922126	-0.992948	0.116753	-0.020575	-0.099810	-0.916940	-0.386341
03599														9.033661	-0.103625	-3.805237	0.019554	0.005004	-0.011781	-0.846924	-0.314697	0.317139	-0.063842	-0.381524	0.922152	-0.992958	0.116686	-0.020468	-0.099793	-0.916965	-0.386286
03600														9.054691	-0.106676	-3.817100	0.022053	-0.000574	-0.014333	-0.851074	-0.316650	0.314941	-0.063687	-0.381542	0.922155	-0.992974	0.116574	-0.020345	-0.099737	-0.916971	-0.386285
03601														9.051940	-0.084746	-3.827984	0.025722	0.003001	-0.013031	-0.844238	-0.321045	0.312500	-0.063546	-0.381522	0.922173	-0.992991	0.116446	-0.020250	-0.099657	-0.916996	-0.386247
03602														9.088013	-0.098524	-3.810734	0.021551	0.000601	-0.016126	-0.846680	-0.316650	0.314941	-0.063375	-0.381526	0.922183	-0.993005	0.116347	-0.020107	-0.099622	-0.917007	-0.386230
03603														9.052065	-0.083873	-3.827709	0.026927	0.000981	-0.014491	-0.844482	-0.318848	0.310303	-0.063223	-0.381526	0.922194	-0.993024	0.116202	-0.020004	-0.099528	-0.917025	-0.386211
03604														9.052108	-0.083624	-3.827612	0.031483	0.000634	-0.015704	-0.842041	-0.321045	0.312500	-0.063057	-0.381528	0.922204	-0.993048	0.116015	-0.019904	-0.099395	-0.917048	-0.386191
03605														9.021735	-0.112473	-3.822665	0.033193	-0.002564	-0.015369	-0.846924	-0.314697	0.314941	-0.062899	-0.381562	0.922201	-0.993074	0.115809	-0.019817	-0.099237	-0.917060	-0.386203
03606														9.064291	-0.072548	-3.809632	0.041008	0.000302	-0.016707	-0.842285	-0.314697	0.317139	-0.062721	-0.381570	0.922209	-0.993108	0.115525	-0.019744	-0.099004	-0.917092	-0.386186
03607														9.057713	-0.126556	-3.805636	0.036139	-0.001259	-0.016548	-0.846924	-0.310303	0.307861	-0.062551	-0.381593	0.922211	-0.993138	0.115287	-0.019658	-0.098818	-0.917112	-0.386186
03608														9.066349	-0.140853	-3.835978	0.045349	-0.003494	-0.018604	-0.842041	-0.321045	0.314941	-0.062369	-0.381636	0.922206	-0.993176	0.114964	-0.019593	-0.098543	-0.917135	-0.386202
03609														9.072856	-0.086802	-3.840141	0.042124	-0.000186	-0.018536	-0.844482	-0.314697	0.319580	-0.062177	-0.381651	0.922213	-0.993213	0.114664	-0.019511	-0.098298	-0.917167	-0.386190
03610														9.063424	-0.119443	-3.847251	0.049213	-0.003001	-0.016564	-0.837646	-0.323242	0.317383	-0.062000	-0.381695	0.922206	-0.993256	0.114292	-0.019472	-0.097968	-0.917195	-0.386207
03611														9.042446	-0.116266	-3.835265	0.047097	-0.000175	-0.018326	-0.850830	-0.323242	0.314941	-0.061811	-0.381710	0.922213	-0.993297	0.113947	-0.019412	-0.097674	-0.917231	-0.386195
03612														9.012153	-0.145526	-3.830112	0.047510	0.000188	-0.016903	-0.844482	-0.318848	0.312500	-0.061621	-0.381723	0.922220	-0.993339	0.113593	-0.019355	-0.097370	-0.917270	-0.386180
03613														9.024378	-0.134905	-3.812023	0.049128	-0.001472	-0.016935	-0.844238	-0.321045	0.312500	-0.061446	-0.381748	0.922221	-0.993380	0.113235	-0.019314	-0.097055	-0.917304	-0.386179
03614														9.012153	-0.146283	-3.830082	0.052485	0.000200	-0.016693	-0.846680	-0.321045	0.317383	-0.061269	-0.381755	0.922231	-0.993425	0.112853	-0.019284	-0.096715	-0.917348	-0.386159
03615														9.060444	-0.149975	-3.794745	0.051788	0.001046	-0.013442	-0.853271	-0.318848	0.312500	-0.061127	-0.381753	0.922241	-0.993466	0.112484	-0.019286	-0.096375	-0.917394	-0.386134
03616														9.045508	-0.140119	-3.823575	0.051504	0.005660	-0.014562	-0.846680	-0.321045	0.314941	-0.060969	-0.381706	0.922271	-0.993508	0.112120	-0.019274	-0.096048	-0.917458	-0.386063
03617														9.057433	-0.177147	-3.841702	0.053772	0.010943	-0.006771	-0.846680	-0.316650	0.319580	-0.060883	-0.381605	0.922318	-0.993547	0.111758	-0.019346	-0.095694	-0.917544	-0.385947
03618														9.114832	-0.196066	-3.835504	0.055296	0.010823	-0.007175	-0.848633	-0.323242	0.317383	-0.060790	-0.381508	0.922364	-0.993589	0.111375	-0.019418	-0.095320	-0.917631	-0.385833
03619														9.118221	-0.219441	-3.822978	0.057564	0.016109	0.000614	-0.844482	-0.316650	0.317139	-0.060773	-0.381352	0.922430	-0.993627	0.111006	-0.019572	-0.094932	-0.917741	-0.385668
03620														9.115973	-0.200555	-3.832559	0.056670	0.016645	0.008911	-0.848877	-0.316650	0.319580	-0.060832	-0.381184	0.922496	-0.993660	0.110671	-0.019795	-0.094548	-0.917851	-0.385500
03621														9.122346	-0.246844	-3.808396	0.051118	0.019073	0.018044	-0.837646	-0.323242	0.310303	-0.060986	-0.380981	0.922569	-0.993681	0.110427	-0.020085	-0.094225	-0.917965	-0.385309
03622														9.086969	-0.236926	-3.823846	0.047783	0.017140	0.029322	-0.848877	-0.321045	0.314941	-0.061245	-0.380785	0.922633	-0.993693	0.110253	-0.020459	-0.093933	-0.918067	-0.385136
03623														9.087598	-0.241522	-3.822063	0.045469	0.019649	0.032598	-0.849121	-0.314697	0.319580	-0.061543	-0.380561	0.922706	-0.993700	0.110117	-0.020861	-0.093667	-0.918176	-0.384940
03624														9.046225	-0.239769	-3.796413	0.047388	0.013122	0.045220	-0.846680	-0.318848	0.314941	-0.061970	-0.380384	0.922750	-0.993701	0.110008	-0.021386	-0.093375	-0.918263	-0.384805
03625														9.049632	-0.267107	-3.783384	0.038520	0.023798	0.048221	-0.849121	-0.312500	0.314941	-0.062419	-0.380105	0.922835	-0.993691	0.109995	-0.021906	-0.093180	-0.918380	-0.384572
03626														9.086299	-0.287089	-3.764015	0.035065	0.020275	0.053407	-0.851318	-0.314697	0.317139	-0.062924	-0.379851	0.922905	-0.993674	0.110036	-0.022460	-0.093021	-0.918480	-0.384371
03627														9.045042	-0.286202	-3.737943	0.031233	0.022906	0.057082	-0.844482	-0.316650	0.317139	-0.063462	-0.379570	0.922984	-0.993651	0.110123	-0.023034	-0.092899	-0.918586	-0.384148
03628														9.054511	-0.307100	-3.765720	0.023542	0.025039	0.058717	-0.844482	-0.316650	0.312500	-0.064010	-0.379270	0.923069	-0.993621	0.110279	-0.023591	-0.092848	-0.918691	-0.383909
03629														9.041007	-0.255614	-3.755938	0.020097	0.024904	0.058099	-0.844482	-0.314697	0.312500	-0.064557	-0.378969	0.923155	-0.993586	0.110472	-0.024132	-0.092838	-0.918792	-0.383671
03630														9.020124	-0.304988	-3.778356	0.016149	0.025938	0.055679	-0.849121	-0.310303	0.312500	-0.065073	-0.378661	0.923245	-0.993549	0.110693	-0.024628	-0.092871	-0.918892	-0.383421
03631														9.048548	-0.260084	-3.792756	0.010638	0.020573	0.053752	-0.846924	-0.312500	0.314941	-0.065580	-0.378404	0.923314	-0.993508	0.110956	-0.025092	-0.092952	-0.918966	-0.383224
03632														9.051905	-0.286721	-3.779580	0.005670	0.020565	0.053534	-0.849121	-0.312500	0.312500	-0.066087	-0.378147	0.923384	-0.993463	0.111265	-0.025537	-0.093084	-0.919035	-0.383028
03633														9.031565	-0.287589	-3.765776	0.001193	0.019634	0.043599	-0.851318	-0.314697	0.317139	-0.066494	-0.377910	0.923451	-0.993419	0.111577	-0.025871	-0.093259	-0.919094	-0.382843
03634														9.035650	-0.265581	-3.716033	-0.000443	0.018154	0.037908	-0.849121	-0.310303	0.312500	-0.066843	-0.377694	0.923515	-0.993378	0.111879	-0.026144	-0.093447	-0.919146	-0.382671
03635														9.030052	-0.272826	-3.773739	-0.004101	0.017966	0.030816	-0.846924	-0.314453	0.310059	-0.067124	-0.377487	0.923579	-0.993338	0.112190	-0.026339	-0.093674	-0.919194	-0.382503
03636														9.063908	-0.267943	-3.765886	-0.002147	0.021595	0.026033	-0.853516	-0.316650	0.310059	-0.067353	-0.377249	0.923660	-0.993302	0.112471	-0.026496	-0.093889	-0.919257	-0.382297
03637														9.052377	-0.280958	-3.782114	-0.003695	0.018579	0.020720	-0.849121	-0.310303	0.314697	-0.067534	-0.377047	0.923729	-0.993268	0.112740	-0.026600	-0.094112	-0.919307	-0.382123
03638														9.076571	-0.307610	-3.781312	-0.005154	0.014027	0.015785	-0.853516	-0.312500	0.310059	-0.067668	-0.376891	0.923783	-0.993237	0.113008	-0.026649	-0.094351	-0.919338	-0.381989
03639														9.111068	-0.254077	-3.737219	-0.003840	0.013842	0.008914	-0.851318	-0.310303	0.305420	-0.067735	-0.376746	0.923837	-0.993211	0.113235	-0.026644	-0.094572	-0.919370	-0.381858
03640														9.111588	-0.254747	-3.735905	-0.000887	0.015133	0.007734	-0.851563	-0.308105	0.314697	-0.067797	-0.376580	0.923900	-0.993186	0.113451	-0.026639	-0.094786	-0.919411	-0.381706
03641														9.083176	-0.186828	-3.756558	-0.006386	0.013168	-0.000003	-0.849121	-0.314453	0.307861	-0.067777	-0.376452	0.923954	-0.993164	0.113667	-0.026541	-0.095032	-0.919437	-0.381583
03642														9.036462	-0.136287	-3.753979	-0.007586	0.015198	0.001442	-0.849121	-0.314697	0.312500	-0.067769	-0.376301	0.924016	-0.993140	0.113903	-0.026452	-0.095295	-0.919469	-0.381438
03643														9.062449	-0.229775	-3.778863	-0.005683	0.012307	-0.003250	-0.849121	-0.314697	0.314941	-0.067717	-0.376184	0.924067	-0.993120	0.114101	-0.026328	-0.095533	-0.919493	-0.381322
03644														9.064732	-0.297796	-3.803340	-0.004891	0.009908	-0.006118	-0.851318	-0.312500	0.314941	-0.067630	-0.376096	0.924109	-0.993105	0.114270	-0.026174	-0.095754	-0.919508	-0.381231
03645														9.083342	-0.281915	-3.725261	-0.006146	0.005417	-0.004583	-0.855957	-0.310303	0.307617	-0.067571	-0.376044	0.924135	-0.993086	0.114466	-0.026035	-0.095992	-0.919504	-0.381179
03646														9.056426	-0.281844	-3.772342	-0.001405	0.001971	-0.005026	-0.855713	-0.314697	0.312500	-0.067515	-0.376021	0.924148	-0.993071	0.114624	-0.025912	-0.096186	-0.919494	-0.381154
03647														9.074905	-0.263557	-3.795233	-0.002695	0.005539	-0.003960	-0.851318	-0.312500	0.312500	-0.067463	-0.375967	0.924174	-0.993055	0.114791	-0.025792	-0.096390	-0.919495	-0.381100
03648														9.098662	-0.288340	-3.795601	0.000614	0.000678	-0.003625	-0.853760	-0.310303	0.305420	-0.067417	-0.375957	0.924181	-0.993041	0.114929	-0.025687	-0.096558	-0.919482	-0.381089
03649														9.086509	-0.299131	-3.813550	-0.004652	0.001908	0.000822	-0.851074	-0.316650	0.310059	-0.067415	-0.375931	0.924192	-0.993020	0.115133	-0.025604	-0.096780	-0.919467	-0.381069
03650														9.098737	-0.287856	-3.795458	-0.002748	-0.000982	-0.003870	-0.844727	-0.312500	0.307861	-0.067373	-0.375930	0.924196	-0.993002	0.115316	-0.025482	-0.096995	-0.919445	-0.381068
03651														9.087276	-0.251085	-3.776875	-0.005087	-0.001596	-0.006316	-0.846924	-0.314697	0.314941	-0.067304	-0.375944	0.924195	-0.992985	0.115497	-0.025332	-0.097218	-0.919416	-0.381081
03652														9.066258	-0.246725	-3.765083	-0.003157	-0.001350	-0.005293	-0.853760	-0.310303	0.310059	-0.067237	-0.375959	0.924194	-0.992970	0.115653	-0.025193	-0.097415	-0.919391	-0.381092
03653														9.075788	-0.213472	-3.758397	-0.005585	-0.000426	-0.008118	-0.846924	-0.312500	0.312500	-0.067149	-0.375965	0.924198	-0.992954	0.115832	-0.025024	-0.097643	-0.919366	-0.381093
03654														9.075755	-0.212472	-3.758534	-0.005904	-0.002333	-0.009163	-0.851074	-0.316650	0.305420	-0.067053	-0.375989	0.924195	-0.992938	0.116008	-0.024846	-0.097872	-0.919334	-0.381113
03655														9.054775	-0.207403	-3.746680	-0.007807	0.000807	-0.015990	-0.851074	-0.316650	0.314941	-0.066886	-0.375993	0.924205	-0.992924	0.116177	-0.024595	-0.098124	-0.919311	-0.381103
03656														9.075710	-0.209651	-3.758801	-0.001660	-0.004608	-0.011408	-0.849121	-0.314697	0.312500	-0.066764	-0.376040	0.924195	-0.992913	0.116308	-0.024404	-0.098315	-0.919275	-0.381140
03657														9.066212	-0.240883	-3.765572	-0.008280	0.005111	-0.012076	-0.851318	-0.312500	0.305420	-0.066631	-0.375999	0.924221	-0.992897	0.116496	-0.024188	-0.098574	-0.919268	-0.381091
03658														9.040023	-0.192919	-3.775963	-0.004970	0.000251	-0.011742	-0.849121	-0.314697	0.312500	-0.066507	-0.376000	0.924230	-0.992882	0.116661	-0.023987	-0.098803	-0.919246	-0.381083
03659														9.019102	-0.187902	-3.763951	-0.008509	0.001665	-0.012743	-0.846924	-0.312500	0.312500	-0.066371	-0.375992	0.924243	-0.992865	0.116849	-0.023764	-0.099062	-0.919226	-0.381065
03660														9.042905	-0.211525	-3.764337	-0.010209	0.004863	-0.013099	-0.853516	-0.314453	0.307861	-0.066223	-0.375960	0.924267	-0.992849	0.117039	-0.023530	-0.099329	-0.919215	-0.381022
03661														9.013380	-0.191706	-3.721886	-0.011411	0.006892	-0.011653	-0.853516	-0.312500	0.312500	-0.066093	-0.375903	0.924299	-0.992828	0.117258	-0.023306	-0.099621	-0.919210	-0.380957
03662														9.055664	-0.197552	-3.745064	-0.014134	0.009042	-0.009808	-0.849121	-0.314453	0.307861	-0.065983	-0.375821	0.924340	-0.992803	0.117514	-0.023091	-0.099945	-0.919211	-0.380870
03663														9.053399	-0.174615	-3.755405	-0.012792	0.011995	-0.010963	-0.851318	-0.314453	0.310059	-0.065854	-0.375716	0.924392	-0.992780	0.117748	-0.022868	-0.100253	-0.919224	-0.380757
03664														9.041605	-0.184358	-3.772601	-0.008664	0.007874	-0.007783	-0.846924	-0.310303	0.305420	-0.065762	-0.375643	0.924428	-0.992759	0.117959	-0.022690	-0.100521	-0.919227	-0.380681
03665														9.087357	-0.165002	-3.747457	-0.007003	0.012734	-0.007891	-0.846924	-0.312500	0.310059	-0.065663	-0.375528	0.924482	-0.992740	0.118151	-0.022517	-0.100773	-0.919249	-0.380560
03666														9.051943	-0.149916	-3.763861	-0.008345	0.009779	-0.006737	-0.846924	-0.310303	0.307861	-0.065582	-0.375437	0.924525	-0.992719	0.118362	-0.022354	-0.101036	-0.919259	-0.380466
03667														9.085522	-0.141683	-3.756746	-0.008026	0.011685	-0.005691	-0.853271	-0.318848	0.310059	-0.065506	-0.375329	0.924574	-0.992697	0.118572	-0.022198	-0.101297	-0.919276	-0.380355
03668														9.085975	-0.140937	-3.755678	-0.007618	0.012053	-0.004267	-0.851074	-0.321045	0.303223	-0.065443	-0.375215	0.924625	-0.992675	0.118784	-0.022057	-0.101554	-0.919295	-0.380240
03669														9.098574	-0.129292	-3.736576	-0.007528	0.010515	-0.003890	-0.848877	-0.321045	0.307861	-0.065386	-0.375116	0.924669	-0.992653	0.118996	-0.021920	-0.101809	-0.919309	-0.380140
03670														9.107855	-0.143254	-3.765508	-0.004665	0.013347	-0.005443	-0.851318	-0.314453	0.302979	-0.065303	-0.374988	0.924727	-0.992633	0.119185	-0.021768	-0.102050	-0.919336	-0.380009
03671														9.081137	-0.146056	-3.711296	-0.002060	0.009348	-0.001863	-0.848877	-0.316650	0.307861	-0.065267	-0.374897	0.924766	-0.992615	0.119354	-0.021670	-0.102250	-0.919352	-0.379918
03672														9.093016	-0.182147	-3.729154	0.000684	0.010331	0.002009	-0.851318	-0.312500	0.312500	-0.065271	-0.374787	0.924811	-0.992596	0.119523	-0.021618	-0.102434	-0.919374	-0.379813
03673														9.102774	-0.150109	-3.721632	0.004900	0.004673	0.005567	-0.853516	-0.316650	0.305420	-0.065314	-0.374730	0.924831	-0.992580	0.119657	-0.021615	-0.102562	-0.919380	-0.379764
03674														9.075823	-0.154352	-3.667896	0.011003	0.007319	0.009688	-0.846680	-0.318848	0.303223	-0.065397	-0.374643	0.924860	-0.992567	0.119750	-0.021676	-0.102631	-0.919404	-0.379689
03675														9.063907	-0.166461	-3.685333	0.007146	0.006825	0.007638	-0.846680	-0.318848	0.305420	-0.065458	-0.374563	0.924888	-0.992552	0.119870	-0.021702	-0.102738	-0.919420	-0.379620
03676														9.079817	-0.127936	-3.719121	0.012327	0.007140	0.002817	-0.851074	-0.318848	0.307861	-0.065464	-0.374484	0.924920	-0.992545	0.119930	-0.021693	-0.102802	-0.919445	-0.379543
03677														9.088891	-0.143401	-3.748522	0.017388	0.005605	0.003422	-0.849121	-0.314453	0.302979	-0.065485	-0.374421	0.924944	-0.992543	0.119941	-0.021718	-0.102807	-0.919469	-0.379483
03678														9.091684	-0.165696	-3.736916	0.019388	0.001181	-0.000892	-0.848633	-0.323242	0.300781	-0.065466	-0.374400	0.924953	-0.992546	0.119924	-0.021708	-0.102797	-0.919480	-0.379460
03679														9.080191	-0.130126	-3.718132	0.014506	-0.000360	-0.000742	-0.851074	-0.318848	0.305420	-0.065451	-0.374397	0.924956	-0.992544	0.119945	-0.021683	-0.102826	-0.919478	-0.379455
03680														9.116013	-0.144620	-3.700676	0.022731	-0.000292	-0.006359	-0.851318	-0.314453	0.310059	-0.065375	-0.374393	0.924963	-0.992552	0.119884	-0.021627	-0.102791	-0.919488	-0.379442
03681														9.089050	-0.145313	-3.748065	0.020713	0.000999	-0.007762	-0.846680	-0.314453	0.302979	-0.065289	-0.374386	0.924972	-0.992561	0.119822	-0.021561	-0.102759	-0.919499	-0.379424
03682														9.101272	-0.134310	-3.729823	0.024782	0.001800	-0.010760	-0.848877	-0.316650	0.302979	-0.065173	-0.374373	0.924985	-0.992576	0.119713	-0.021483	-0.102690	-0.919518	-0.379396
03683														9.082965	-0.152139	-3.706574	0.026483	-0.001398	-0.010402	-0.848877	-0.316650	0.302979	-0.065063	-0.374391	0.924985	-0.992593	0.119588	-0.021415	-0.102600	-0.919527	-0.379398
03684														9.103900	-0.155859	-3.718640	0.029617	-0.003181	-0.010821	-0.848877	-0.318848	0.310059	-0.064953	-0.374419	0.924982	-0.992611	0.119448	-0.021351	-0.102493	-0.919534	-0.379411
03685														9.082797	-0.152319	-3.706979	0.028097	-0.003060	-0.010422	-0.853271	-0.318848	0.307861	-0.064844	-0.374452	0.924976	-0.992629	0.119308	-0.021289	-0.102385	-0.919539	-0.379428
03686														9.103735	-0.156125	-3.719032	0.029937	-0.001276	-0.009776	-0.848877	-0.318848	0.305420	-0.064734	-0.374470	0.924977	-0.992649	0.119148	-0.021234	-0.102258	-0.919552	-0.379430
03687														9.127286	-0.181682	-3.719927	0.031112	-0.006687	-0.005413	-0.853516	-0.314453	0.310059	-0.064680	-0.374530	0.924956	-0.992667	0.119000	-0.021230	-0.102118	-0.919547	-0.379480
03688														9.093905	-0.189603	-3.726614	0.033253	-0.006136	-0.009436	-0.851318	-0.312500	0.302979	-0.064584	-0.374589	0.924939	-0.992690	0.118818	-0.021195	-0.101960	-0.919546	-0.379524
03689														9.091042	-0.168570	-3.738350	0.032050	-0.004108	-0.007994	-0.853271	-0.321045	0.303223	-0.064501	-0.374629	0.924929	-0.992710	0.118651	-0.021170	-0.101812	-0.919552	-0.379551
03690														9.072482	-0.187080	-3.715684	0.036271	-0.009761	-0.004426	-0.849121	-0.314453	0.305420	-0.064465	-0.374707	0.924900	-0.992730	0.118480	-0.021192	-0.101641	-0.919542	-0.379620
03691														9.099330	-0.184776	-3.769586	0.033755	-0.007309	-0.007633	-0.849121	-0.312500	0.307861	-0.064388	-0.374775	0.924877	-0.992752	0.118299	-0.021177	-0.101475	-0.919537	-0.379676
03692														9.090214	-0.170561	-3.740272	0.036394	-0.007927	-0.009854	-0.846924	-0.314453	0.310059	-0.064295	-0.374850	0.924853	-0.992778	0.118090	-0.021155	-0.101286	-0.919534	-0.379735
03693														9.125764	-0.185143	-3.723490	0.038416	-0.009218	-0.008449	-0.846680	-0.318848	0.303223	-0.064213	-0.374937	0.924824	-0.992805	0.117863	-0.021150	-0.101072	-0.919527	-0.379807
03694														9.125496	-0.185754	-3.724116	0.036715	-0.006023	-0.008812	-0.851074	-0.321045	0.307861	-0.064120	-0.374994	0.924807	-0.992830	0.117651	-0.021131	-0.100880	-0.919531	-0.379849
03695														9.089382	-0.172124	-3.742222	0.035585	-0.008678	-0.012699	-0.842285	-0.318848	0.300781	-0.063995	-0.375081	0.924780	-0.992857	0.117433	-0.021076	-0.100695	-0.919523	-0.379917
03696														9.091824	-0.193874	-3.731468	0.039356	-0.006645	-0.011033	-0.851074	-0.316650	0.310059	-0.063879	-0.375143	0.924763	-0.992886	0.117197	-0.021042	-0.100486	-0.919528	-0.379961
03697														9.082145	-0.226717	-3.738646	0.035498	-0.007147	-0.013080	-0.848633	-0.325439	0.312500	-0.063748	-0.375217	0.924742	-0.992913	0.116979	-0.020983	-0.100303	-0.919526	-0.380015
03698														9.085160	-0.200994	-3.691441	0.040250	-0.010592	-0.013513	-0.851318	-0.314453	0.307861	-0.063605	-0.375327	0.924708	-0.992946	0.116705	-0.020930	-0.100062	-0.919516	-0.380102
03699														9.090956	-0.194676	-3.733541	0.036001	-0.008315	-0.011275	-0.846680	-0.321045	0.314941	-0.063494	-0.375409	0.924682	-0.992972	0.116489	-0.020890	-0.099873	-0.919510	-0.380167
03700														9.105553	-0.205330	-3.704792	0.036410	-0.007943	-0.009853	-0.855713	-0.312500	0.305420	-0.063390	-0.375489	0.924656	-0.992999	0.116265	-0.020862	-0.099672	-0.919505	-0.380231
03701														9.099164	-0.210259	-3.764934	0.035780	-0.011766	-0.011931	-0.851074	-0.316650	0.310059	-0.063275	-0.375604	0.924618	-0.993025	0.116048	-0.020815	-0.099482	-0.919486	-0.380327
03702														9.089889	-0.195759	-3.736082	0.034758	-0.012807	-0.009727	-0.844482	-0.316650	0.310059	-0.063192	-0.375719	0.924576	-0.993048	0.115864	-0.020788	-0.099314	-0.919462	-0.380429
03703														9.101643	-0.184987	-3.719063	0.037623	-0.009983	-0.011292	-0.846924	-0.314697	0.312500	-0.063082	-0.375817	0.924544	-0.993075	0.115633	-0.020754	-0.099108	-0.919451	-0.380509
03704														9.089100	-0.196369	-3.737969	0.030809	-0.011777	-0.012155	-0.855469	-0.323242	0.305420	-0.062960	-0.375936	0.924504	-0.993098	0.115450	-0.020686	-0.098957	-0.919426	-0.380610
03705														9.082504	-0.203112	-3.697856	0.039109	-0.016631	-0.011578	-0.848877	-0.318848	0.310059	-0.062854	-0.376095	0.924447	-0.993127	0.115204	-0.020655	-0.098732	-0.919392	-0.380751
03706														9.069759	-0.214741	-3.717225	0.034951	-0.015887	-0.008958	-0.853271	-0.323242	0.310303	-0.062770	-0.376238	0.924394	-0.993149	0.115019	-0.020625	-0.098563	-0.919356	-0.380880
03707														9.057114	-0.226452	-3.736330	0.036607	-0.011029	-0.009089	-0.846436	-0.323242	0.310303	-0.062683	-0.376342	0.924358	-0.993174	0.114806	-0.020608	-0.098366	-0.919340	-0.380970
03708														9.110843	-0.223250	-3.743161	0.034063	-0.011943	-0.006483	-0.846436	-0.323242	0.303223	-0.062611	-0.376452	0.924318	-0.993195	0.114624	-0.020593	-0.098197	-0.919318	-0.381067
03709														9.053505	-0.206241	-3.749811	0.033249	-0.012698	-0.009326	-0.846680	-0.316650	0.314941	-0.062523	-0.376572	0.924275	-0.993217	0.114441	-0.020561	-0.098032	-0.919291	-0.381173
03710														9.067977	-0.216777	-3.721454	0.031727	-0.012575	-0.008926	-0.846680	-0.318848	0.310303	-0.062432	-0.376689	0.924233	-0.993237	0.114274	-0.020519	-0.097886	-0.919264	-0.381276
03711														9.097953	-0.188324	-3.727914	0.033568	-0.010789	-0.008290	-0.849121	-0.314697	0.312500	-0.062353	-0.376790	0.924198	-0.993259	0.114092	-0.020497	-0.097720	-0.919245	-0.381364
03712														9.040045	-0.218820	-3.770783	0.030616	-0.012078	-0.007105	-0.853271	-0.321045	0.305420	-0.062284	-0.376903	0.924156	-0.993277	0.113938	-0.020475	-0.097579	-0.919218	-0.381465
03713														9.036887	-0.199531	-3.682765	0.034872	-0.014366	-0.009340	-0.851074	-0.318848	0.310059	-0.062197	-0.377038	0.924107	-0.993300	0.113739	-0.020449	-0.097398	-0.919187	-0.381586
03714														9.045318	-0.215046	-3.713503	0.032681	-0.006843	-0.005822	-0.848877	-0.318848	0.310059	-0.062140	-0.377092	0.924089	-0.993317	0.113593	-0.020442	-0.097261	-0.919183	-0.381631
03715														9.066000	-0.219471	-3.726108	0.031345	-0.009792	-0.004648	-0.846436	-0.323242	0.314941	-0.062096	-0.377180	0.924056	-0.993334	0.113445	-0.020446	-0.097118	-0.919166	-0.381710
03716														9.074474	-0.235090	-3.756711	0.029321	-0.008511	-0.006056	-0.853516	-0.316650	0.312500	-0.062026	-0.377260	0.924028	-0.993351	0.113303	-0.020421	-0.096991	-0.919150	-0.381779
03717														9.068122	-0.242080	-3.716093	0.028300	-0.009545	-0.003848	-0.851074	-0.318848	0.314941	-0.061989	-0.377344	0.923996	-0.993364	0.113185	-0.020420	-0.096877	-0.919130	-0.381857
03718														9.055604	-0.254023	-3.734787	0.023730	-0.009172	-0.002647	-0.844482	-0.316650	0.312500	-0.061964	-0.377425	0.923965	-0.993372	0.113113	-0.020414	-0.096808	-0.919106	-0.381932
03719														9.085758	-0.225715	-3.740847	0.024882	-0.003155	-0.004597	-0.846680	-0.316650	0.307861	-0.061914	-0.377451	0.923957	-0.993383	0.113025	-0.020393	-0.096732	-0.919106	-0.381951
03720														9.064616	-0.222442	-3.729298	0.020089	-0.006231	-0.004041	-0.848877	-0.316650	0.317139	-0.061871	-0.377504	0.923939	-0.993388	0.112984	-0.020358	-0.096705	-0.919089	-0.381999
03721														9.046244	-0.240635	-3.706221	0.022747	-0.003685	-0.000568	-0.844482	-0.316650	0.307861	-0.061861	-0.377531	0.923928	-0.993394	0.112930	-0.020367	-0.096650	-0.919085	-0.382023
03722														9.033961	-0.252676	-3.724318	0.019606	-0.001900	-0.000155	-0.849121	-0.314697	0.312500	-0.061851	-0.377543	0.923924	-0.993397	0.112902	-0.020366	-0.096624	-0.919084	-0.382033
03723														9.061569	-0.203116	-3.741382	0.017803	0.002832	-0.000919	-0.844482	-0.318848	0.312500	-0.061831	-0.377510	0.923939	-0.993399	0.112893	-0.020353	-0.096622	-0.919098	-0.381998
03724														9.103163	-0.260248	-3.700455	0.017190	0.002179	0.002711	-0.853271	-0.318848	0.312500	-0.061846	-0.377481	0.923950	-0.993398	0.112898	-0.020370	-0.096623	-0.919109	-0.381971
03725														9.067289	-0.247130	-3.717791	0.011392	0.001417	-0.000350	-0.842041	-0.321045	0.310303	-0.061833	-0.377461	0.923959	-0.993393	0.112949	-0.020337	-0.096684	-0.919111	-0.381951
03726														9.067381	-0.247657	-3.717533	0.013641	0.003585	0.001702	-0.853271	-0.318848	0.305420	-0.061833	-0.377418	0.923976	-0.993389	0.112987	-0.020326	-0.096726	-0.919124	-0.381909
03727														9.079600	-0.236983	-3.699504	0.010464	-0.001150	0.002248	-0.851074	-0.318848	0.307861	-0.061848	-0.377419	0.923975	-0.993381	0.113057	-0.020314	-0.096795	-0.919116	-0.381913
03728														9.091252	-0.273914	-3.717516	0.008976	0.005497	0.002514	-0.851318	-0.314453	0.305420	-0.061867	-0.377347	0.924003	-0.993369	0.113167	-0.020296	-0.096908	-0.919132	-0.381845
03729														9.081963	-0.307050	-3.723517	0.004275	0.000888	0.003461	-0.846680	-0.318848	0.312500	-0.061892	-0.377327	0.924010	-0.993354	0.113298	-0.020271	-0.097040	-0.919123	-0.381832
03730														9.103521	-0.263866	-3.699318	0.007212	-0.001170	0.008099	-0.844238	-0.323242	0.307861	-0.061970	-0.377316	0.924009	-0.993338	0.113432	-0.020300	-0.097153	-0.919112	-0.381831
03731														9.121719	-0.247335	-3.722746	0.007435	0.002280	0.008742	-0.848877	-0.321045	0.312500	-0.062047	-0.377277	0.924020	-0.993324	0.113554	-0.020336	-0.097254	-0.919112	-0.381804
03732														9.131212	-0.215700	-3.716164	0.006933	0.003436	0.006932	-0.846924	-0.314697	0.312500	-0.062095	-0.377229	0.924036	-0.993310	0.113674	-0.020343	-0.097365	-0.919117	-0.381764
03733														9.135167	-0.141339	-3.732757	0.002454	0.002277	0.008522	-0.850830	-0.323242	0.314941	-0.062169	-0.377191	0.924046	-0.993290	0.113841	-0.020359	-0.097515	-0.919112	-0.381738
03734														9.072294	-0.130640	-3.696853	-0.003754	0.001137	0.004041	-0.850830	-0.325439	0.310303	-0.062194	-0.377172	0.924053	-0.993269	0.114039	-0.020305	-0.097720	-0.919095	-0.381726
03735														9.083919	-0.167132	-3.714918	-0.005780	0.002418	0.002632	-0.849121	-0.312500	0.312500	-0.062210	-0.377139	0.924065	-0.993245	0.114260	-0.020235	-0.097952	-0.919081	-0.381700
03736														9.077354	-0.221392	-3.709433	-0.004051	0.002401	0.008702	-0.844482	-0.318848	0.312500	-0.062284	-0.377099	0.924076	-0.993219	0.114489	-0.020224	-0.098170	-0.919070	-0.381672
03737														9.097843	-0.274531	-3.656757	-0.010779	-0.000925	0.008239	-0.849121	-0.314453	0.305420	-0.062359	-0.377090	0.924075	-0.993186	0.114776	-0.020186	-0.098450	-0.919037	-0.381678
03738														9.098249	-0.226313	-3.721475	-0.008957	-0.002479	0.014698	-0.848877	-0.321045	0.312500	-0.062500	-0.377086	0.924067	-0.993151	0.115077	-0.020213	-0.098716	-0.919002	-0.381695
03739														9.085988	-0.238879	-3.739470	-0.007413	0.000573	0.019991	-0.849121	-0.314453	0.302979	-0.062691	-0.377050	0.924069	-0.993114	0.115378	-0.020297	-0.098964	-0.918978	-0.381687
03740														9.098766	-0.181505	-3.685495	-0.005796	-0.001090	0.019980	-0.846680	-0.316650	0.312500	-0.062884	-0.377023	0.924067	-0.993078	0.115676	-0.020384	-0.099207	-0.918952	-0.381688
03741														9.085796	-0.242219	-3.739723	-0.006315	-0.003277	0.023998	-0.851074	-0.321045	0.310303	-0.063118	-0.377018	0.924053	-0.993040	0.115982	-0.020509	-0.099441	-0.918915	-0.381715
03742														9.095043	-0.211632	-3.733760	-0.008860	-0.004182	0.026607	-0.846436	-0.321045	0.305420	-0.063374	-0.377019	0.924035	-0.992997	0.116318	-0.020644	-0.099699	-0.918873	-0.381750
03743														9.131420	-0.179823	-3.680502	-0.009269	-0.004562	0.025187	-0.851074	-0.318848	0.307861	-0.063621	-0.377024	0.924016	-0.992955	0.116656	-0.020769	-0.099961	-0.918828	-0.381790
03744														9.107461	-0.156556	-3.680685	-0.009995	-0.006856	0.022734	-0.846680	-0.316650	0.312500	-0.063843	-0.377046	0.923991	-0.992912	0.117004	-0.020860	-0.100246	-0.918774	-0.381844
03745														9.128136	-0.162057	-3.693258	-0.006947	-0.007110	0.021934	-0.851074	-0.318848	0.303223	-0.064060	-0.377079	0.923963	-0.992874	0.117308	-0.020964	-0.100483	-0.918722	-0.381906
03746														9.158207	-0.134815	-3.699708	-0.007993	-0.011317	0.018449	-0.855713	-0.316650	0.312500	-0.064247	-0.377149	0.923922	-0.992836	0.117618	-0.021027	-0.100740	-0.918654	-0.382004
03747														9.145594	-0.147387	-3.718538	-0.004015	-0.009005	0.015051	-0.851074	-0.321045	0.305420	-0.064398	-0.377206	0.923888	-0.992805	0.117869	-0.021078	-0.100947	-0.918598	-0.382083
03748														9.085566	-0.109478	-3.736719	-0.002014	-0.013466	0.010765	-0.846924	-0.312500	0.310059	-0.064512	-0.377304	0.923840	-0.992778	0.118098	-0.021094	-0.101145	-0.918528	-0.382198
03749														9.066859	-0.128047	-3.714347	-0.001285	-0.011174	0.013217	-0.851318	-0.314453	0.310059	-0.064646	-0.377383	0.923798	-0.992751	0.118317	-0.021138	-0.101324	-0.918468	-0.382297
03750														9.065667	-0.176890	-3.751492	-0.002398	-0.010670	0.015039	-0.851074	-0.318848	0.305420	-0.064804	-0.377454	0.923758	-0.992721	0.118556	-0.021198	-0.101516	-0.918408	-0.382390
03751														9.067990	-0.199579	-3.740831	0.002492	-0.009138	0.014868	-0.848877	-0.318848	0.312500	-0.064953	-0.377513	0.923724	-0.992697	0.118747	-0.021272	-0.101659	-0.918359	-0.382469
03752														9.067710	-0.200942	-3.741438	-0.000828	-0.004276	0.014506	-0.849121	-0.312500	0.302979	-0.065090	-0.377524	0.923709	-0.992668	0.118973	-0.021325	-0.101846	-0.918325	-0.382500
03753														9.073495	-0.196067	-3.783276	0.004244	-0.005817	0.015112	-0.848877	-0.321045	0.312500	-0.065238	-0.377552	0.923687	-0.992646	0.119149	-0.021407	-0.101974	-0.918291	-0.382548
03754														9.075966	-0.218992	-3.772214	0.003132	-0.005312	0.016933	-0.853271	-0.318848	0.312500	-0.065405	-0.377568	0.923669	-0.992619	0.119352	-0.021500	-0.102124	-0.918258	-0.382587
03755														9.039894	-0.206785	-3.790034	0.003361	-0.001863	0.017577	-0.849121	-0.314697	0.312500	-0.065573	-0.377557	0.923662	-0.992594	0.119545	-0.021602	-0.102263	-0.918238	-0.382599
03756														9.060795	-0.212276	-3.801998	0.003180	0.001209	0.016801	-0.849121	-0.312500	0.312500	-0.065729	-0.377519	0.923666	-0.992569	0.119732	-0.021695	-0.102402	-0.918228	-0.382584
03757														9.058104	-0.192681	-3.813435	0.006638	0.001330	0.017419	-0.850830	-0.323242	0.305420	-0.065892	-0.377479	0.923671	-0.992547	0.119894	-0.021809	-0.102510	-0.918224	-0.382566
03758														9.052082	-0.200716	-3.771998	0.004795	-0.000456	0.016788	-0.851074	-0.318848	0.307861	-0.066049	-0.377452	0.923671	-0.992523	0.120076	-0.021904	-0.102643	-0.918211	-0.382561
03759														9.073093	-0.206186	-3.783701	0.007479	0.005431	0.014433	-0.851074	-0.321045	0.305420	-0.066179	-0.377377	0.923692	-0.992504	0.120219	-0.021993	-0.102746	-0.918223	-0.382505
03760														9.070559	-0.186611	-3.794794	0.008392	0.004650	0.017662	-0.849121	-0.314453	0.305420	-0.066339	-0.377299	0.923712	-0.992482	0.120381	-0.022107	-0.102857	-0.918234	-0.382448
03761														9.076878	-0.183586	-3.735228	0.008574	0.001577	0.018438	-0.851074	-0.318848	0.305420	-0.066512	-0.377255	0.923718	-0.992461	0.120529	-0.022237	-0.102946	-0.918233	-0.382427
03762														9.050551	-0.139141	-3.746361	0.014757	-0.000475	0.017224	-0.848877	-0.316650	0.312500	-0.066679	-0.377222	0.923719	-0.992445	0.120635	-0.022375	-0.102992	-0.918232	-0.382416
03763														9.053251	-0.162522	-3.734661	0.011531	0.002854	0.017248	-0.844482	-0.314453	0.307861	-0.066839	-0.377168	0.923730	-0.992428	0.120751	-0.022506	-0.103053	-0.918239	-0.382383
03764														9.064761	-0.200976	-3.752468	0.013287	0.006174	0.017490	-0.853516	-0.316650	0.312500	-0.066993	-0.377084	0.923753	-0.992413	0.120847	-0.022642	-0.103095	-0.918261	-0.382319
03765														9.086679	-0.159320	-3.727983	0.012123	0.000158	0.019446	-0.846680	-0.314453	0.300781	-0.067178	-0.377052	0.923753	-0.992395	0.120966	-0.022795	-0.103148	-0.918259	-0.382311
03766														9.088462	-0.230657	-3.752364	0.012858	0.002448	0.021898	-0.844482	-0.314453	0.307861	-0.067387	-0.376989	0.923763	-0.992374	0.121101	-0.022970	-0.103209	-0.918267	-0.382275
03767														9.046585	-0.225506	-3.728307	0.016406	0.001029	0.022905	-0.848877	-0.316650	0.314941	-0.067605	-0.376945	0.923765	-0.992358	0.121194	-0.023172	-0.103221	-0.918273	-0.382257
03768														9.067581	-0.232088	-3.739947	0.015117	0.004608	0.023948	-0.851318	-0.314453	0.305420	-0.067822	-0.376870	0.923780	-0.992342	0.121291	-0.023373	-0.103237	-0.918290	-0.382210
03769														9.085987	-0.217405	-3.763024	0.018165	0.004346	0.023147	-0.853760	-0.310303	0.312500	-0.068039	-0.376795	0.923795	-0.992327	0.121369	-0.023583	-0.103234	-0.918311	-0.382162
03770														9.089737	-0.193609	-3.714806	0.012595	0.007053	0.020730	-0.849121	-0.312500	0.312500	-0.068236	-0.376693	0.923821	-0.992308	0.121497	-0.023753	-0.103294	-0.918336	-0.382086
03771														9.101247	-0.232445	-3.732411	0.014208	0.005386	0.020719	-0.844727	-0.312500	0.310059	-0.068428	-0.376611	0.923841	-0.992291	0.121602	-0.023926	-0.103330	-0.918356	-0.382029
03772														9.129279	-0.184932	-3.749292	0.015909	0.002182	0.021097	-0.849121	-0.314453	0.310059	-0.068623	-0.376562	0.923846	-0.992276	0.121681	-0.024109	-0.103336	-0.918365	-0.382004
03773														9.111032	-0.204774	-3.725482	0.015409	0.003340	0.019288	-0.851318	-0.314453	0.310059	-0.068803	-0.376500	0.923858	-0.992262	0.121770	-0.024273	-0.103359	-0.918379	-0.381965
03774														9.069260	-0.199261	-3.701232	0.015322	0.004875	0.018898	-0.853516	-0.314453	0.305420	-0.068974	-0.376426	0.923876	-0.992247	0.121855	-0.024430	-0.103383	-0.918398	-0.381912
03775														9.090338	-0.205398	-3.712702	0.016434	0.004365	0.017077	-0.857910	-0.314453	0.310059	-0.069131	-0.376357	0.923892	-0.992235	0.121926	-0.024578	-0.103396	-0.918417	-0.381864
03776														9.123835	-0.200290	-3.705942	0.016819	0.012799	0.017967	-0.849121	-0.314453	0.307861	-0.069293	-0.376204	0.923942	-0.992220	0.122011	-0.024734	-0.103426	-0.918468	-0.381731
03777														9.094374	-0.182368	-3.764029	0.019394	0.005635	0.015888	-0.851318	-0.314453	0.307861	-0.069437	-0.376125	0.923964	-0.992212	0.122050	-0.024882	-0.103411	-0.918495	-0.381670
03778														9.099841	-0.227176	-3.740066	0.016585	0.009348	0.017327	-0.851074	-0.318848	0.307861	-0.069589	-0.376008	0.924000	-0.992199	0.122124	-0.025028	-0.103432	-0.918533	-0.381573
03779														9.100113	-0.229341	-3.739274	0.019308	0.007169	0.015498	-0.846924	-0.310303	0.300781	-0.069727	-0.375916	0.924027	-0.992191	0.122163	-0.025172	-0.103419	-0.918566	-0.381498
03780														9.103918	-0.205052	-3.691022	0.019397	0.005632	0.015888	-0.853516	-0.314453	0.305420	-0.069870	-0.375830	0.924051	-0.992181	0.122216	-0.025313	-0.103420	-0.918594	-0.381431
03781														9.079543	-0.229722	-3.726187	0.020921	0.005498	0.015488	-0.855713	-0.312500	0.307617	-0.070010	-0.375753	0.924071	-0.992174	0.122240	-0.025463	-0.103390	-0.918622	-0.381371
03782														9.092003	-0.220503	-3.707754	0.021534	0.006144	0.011858	-0.848877	-0.318848	0.310059	-0.070117	-0.375668	0.924098	-0.992168	0.122259	-0.025581	-0.103370	-0.918655	-0.381298
03783														9.128851	-0.187577	-3.754411	0.017837	0.002582	0.010600	-0.848877	-0.316650	0.310059	-0.070212	-0.375623	0.924109	-0.992162	0.122293	-0.025674	-0.103368	-0.918668	-0.381266
03784														9.089625	-0.202683	-3.718685	0.022821	0.002560	0.010820	-0.853760	-0.310303	0.310059	-0.070294	-0.375583	0.924119	-0.992162	0.122270	-0.025776	-0.103311	-0.918688	-0.381234
03785														9.089621	-0.204450	-3.718598	0.028266	-0.001802	0.007165	-0.849121	-0.310303	0.310059	-0.070359	-0.375583	0.924114	-0.992169	0.122195	-0.025877	-0.103203	-0.918698	-0.381240
03786														9.089601	-0.206093	-3.718556	0.025046	0.001535	0.007181	-0.853516	-0.316650	0.307861	-0.070422	-0.375554	0.924121	-0.992172	0.122146	-0.025968	-0.103125	-0.918716	-0.381216
03787														9.056412	-0.214911	-3.724336	0.027682	0.000888	0.004962	-0.853516	-0.314453	0.310059	-0.070462	-0.375532	0.924127	-0.992180	0.122068	-0.026047	-0.103025	-0.918736	-0.381197
03788														9.077381	-0.220459	-3.736079	0.029619	0.001132	0.005982	-0.853516	-0.314453	0.305420	-0.070507	-0.375505	0.924134	-0.992189	0.121978	-0.026136	-0.102910	-0.918758	-0.381173
03789														9.080015	-0.243290	-3.724176	0.027597	0.002421	0.004570	-0.853516	-0.314453	0.305420	-0.070542	-0.375470	0.924146	-0.992196	0.121899	-0.026210	-0.102811	-0.918783	-0.381139
03790														9.080126	-0.244796	-3.723805	0.029448	0.004200	0.005197	-0.851318	-0.310303	0.307617	-0.070582	-0.375410	0.924167	-0.992204	0.121822	-0.026292	-0.102714	-0.918818	-0.381082
03791														9.086402	-0.240115	-3.764680	0.028039	0.006132	0.000153	-0.853516	-0.312500	0.312500	-0.070569	-0.375346	0.924194	-0.992215	0.121722	-0.026328	-0.102613	-0.918857	-0.381014
03792														9.101529	-0.251273	-3.734415	0.025730	0.008694	0.003398	-0.844727	-0.312500	0.314941	-0.070586	-0.375255	0.924230	-0.992222	0.121654	-0.026384	-0.102535	-0.918904	-0.380923
03793														9.071134	-0.281162	-3.727944	0.028953	0.005353	0.003386	-0.849121	-0.312500	0.307861	-0.070606	-0.375194	0.924253	-0.992232	0.121558	-0.026453	-0.102425	-0.918941	-0.380862
03794														9.093273	-0.238611	-3.703517	0.025579	0.003707	0.003159	-0.851563	-0.305908	0.314697	-0.070615	-0.375156	0.924268	-0.992241	0.121475	-0.026502	-0.102333	-0.918968	-0.380823
03795														9.120480	-0.237983	-3.756341	0.028955	0.005351	0.003386	-0.846924	-0.314453	0.310059	-0.070635	-0.375095	0.924291	-0.992251	0.121379	-0.026571	-0.102223	-0.919006	-0.380762
03796														9.114544	-0.245418	-3.714420	0.030979	0.004060	0.004800	-0.851318	-0.312500	0.307861	-0.070666	-0.375051	0.924307	-0.992264	0.121253	-0.026661	-0.102076	-0.919040	-0.380718
03797														9.100862	-0.189113	-3.707768	0.035142	0.003272	0.002183	-0.853271	-0.321045	0.303223	-0.070676	-0.375011	0.924322	-0.992281	0.121096	-0.026742	-0.101903	-0.919077	-0.380674
03798														9.082593	-0.207769	-3.683810	0.034731	0.002890	0.000764	-0.853760	-0.310303	0.312500	-0.070666	-0.374970	0.924340	-0.992297	0.120948	-0.026798	-0.101749	-0.919113	-0.380628
03799														9.100056	-0.239882	-3.742813	0.032096	0.003540	0.002981	-0.853516	-0.314697	0.312500	-0.070684	-0.374926	0.924356	-0.992310	0.120822	-0.026874	-0.101607	-0.919148	-0.380583
03800														9.087881	-0.253357	-3.659748	0.039280	-0.000847	0.005408	-0.844727	-0.310303	0.307861	-0.070726	-0.374924	0.924354	-0.992331	0.120628	-0.027000	-0.101380	-0.919174	-0.380580
03801														9.108722	-0.258754	-3.772276	0.032358	-0.001068	0.004166	-0.851318	-0.314453	0.307861	-0.070761	-0.374921	0.924352	-0.992343	0.120504	-0.027089	-0.101232	-0.919191	-0.380578
03802														9.114773	-0.254839	-3.713222	0.033644	-0.004655	0.003139	-0.853516	-0.314453	0.307861	-0.070782	-0.374953	0.924338	-0.992358	0.120362	-0.027167	-0.101068	-0.919197	-0.380607
03803														9.081424	-0.263549	-3.719358	0.031535	-0.001833	0.001328	-0.853760	-0.308105	0.305420	-0.070790	-0.374961	0.924334	-0.992372	0.120234	-0.027227	-0.100928	-0.919211	-0.380612
03804														9.110958	-0.284161	-3.761002	0.030711	-0.002598	-0.001510	-0.849365	-0.305908	0.300537	-0.070773	-0.374973	0.924330	-0.992386	0.120117	-0.027256	-0.100808	-0.919221	-0.380618
03805														9.066402	-0.255764	-3.749220	0.030300	-0.002981	-0.002928	-0.851318	-0.310303	0.307617	-0.070739	-0.374996	0.924324	-0.992401	0.119985	-0.027271	-0.100678	-0.919229	-0.380634
03806														9.102055	-0.270491	-3.731790	0.028450	-0.004762	-0.003552	-0.851318	-0.314453	0.310059	-0.070709	-0.375028	0.924313	-0.992413	0.119887	-0.027276	-0.100584	-0.919229	-0.380659
03807														9.050346	-0.295643	-3.714249	0.026753	-0.001558	-0.003946	-0.855957	-0.310303	0.307617	-0.070663	-0.375039	0.924312	-0.992425	0.119784	-0.027268	-0.100491	-0.919238	-0.380663
03808														9.066115	-0.257974	-3.749761	0.025642	-0.001040	-0.002128	-0.851318	-0.310303	0.312500	-0.070634	-0.375041	0.924313	-0.992435	0.119702	-0.027271	-0.100415	-0.919247	-0.380659
03809														9.057344	-0.243190	-3.720327	0.024990	-0.004874	-0.004171	-0.853516	-0.314453	0.307861	-0.070590	-0.375083	0.924300	-0.992446	0.119615	-0.027254	-0.100337	-0.919241	-0.380694
03810														9.078149	-0.247885	-3.732495	0.028368	-0.003232	-0.003948	-0.853516	-0.312500	0.310059	-0.070542	-0.375110	0.924292	-0.992461	0.119495	-0.027250	-0.100226	-0.919246	-0.380712
03811														9.057105	-0.244554	-3.720822	0.024205	-0.002439	-0.001332	-0.849365	-0.308105	0.307617	-0.070524	-0.375127	0.924287	-0.992469	0.119425	-0.027257	-0.100158	-0.919248	-0.380724
03812														9.083137	-0.291890	-3.709120	0.027584	-0.000797	-0.001109	-0.853760	-0.310303	0.302979	-0.070506	-0.375126	0.924288	-0.992480	0.119327	-0.027279	-0.100060	-0.919261	-0.380719
03813														9.086663	-0.265859	-3.762320	0.025973	0.000873	-0.001108	-0.846924	-0.314697	0.312500	-0.070487	-0.375112	0.924296	-0.992490	0.119242	-0.027294	-0.099976	-0.919278	-0.380700
03814														9.101542	-0.276467	-3.732603	0.027086	0.000351	-0.002925	-0.851318	-0.310303	0.307617	-0.070446	-0.375102	0.924303	-0.992502	0.119144	-0.027293	-0.099888	-0.919295	-0.380683
03815														9.059599	-0.269134	-3.708948	0.021657	-0.003319	0.001283	-0.849121	-0.314453	0.307861	-0.070454	-0.375123	0.924294	-0.992506	0.119107	-0.027314	-0.099844	-0.919291	-0.380704
03816														9.074289	-0.279925	-3.780112	0.026475	-0.000280	0.000708	-0.846924	-0.314697	0.314941	-0.070451	-0.375115	0.924297	-0.992514	0.119029	-0.027344	-0.099761	-0.919305	-0.380693
03817														9.089059	-0.290656	-3.750640	0.025823	-0.004117	-0.001331	-0.851563	-0.305908	0.310059	-0.070434	-0.375147	0.924286	-0.992524	0.118944	-0.027357	-0.099675	-0.919303	-0.380720
03818														9.080255	-0.276030	-3.721306	0.021660	-0.003321	0.001284	-0.853516	-0.316650	0.310059	-0.070436	-0.375174	0.924274	-0.992530	0.118893	-0.027378	-0.099618	-0.919298	-0.380746
03819														9.095944	-0.238600	-3.757083	0.022686	-0.002309	-0.000932	-0.853760	-0.308105	0.305420	-0.070421	-0.375189	0.924270	-0.992536	0.118838	-0.027383	-0.099565	-0.919299	-0.380757
03820														9.056575	-0.252343	-3.721590	0.024126	-0.000914	-0.001730	-0.853516	-0.312500	0.307861	-0.070398	-0.375186	0.924272	-0.992543	0.118779	-0.027383	-0.099510	-0.919308	-0.380750
03821														9.077515	-0.257082	-3.733414	0.022102	0.000372	-0.003148	-0.849121	-0.310303	0.305420	-0.070359	-0.375179	0.924278	-0.992550	0.118721	-0.027365	-0.099465	-0.919318	-0.380737
03822														9.054019	-0.232438	-3.733333	0.025567	0.000480	-0.002528	-0.849121	-0.310303	0.307861	-0.070326	-0.375164	0.924287	-0.992560	0.118646	-0.027363	-0.099397	-0.919334	-0.380717
03823														9.098422	-0.262687	-3.745255	0.027767	-0.003875	-0.000310	-0.853516	-0.312500	0.307861	-0.070319	-0.375193	0.924276	-0.992571	0.118547	-0.027393	-0.099292	-0.919335	-0.380742
03824														9.074778	-0.238444	-3.745515	0.033786	-0.002896	-0.002306	-0.846924	-0.310303	0.307861	-0.070291	-0.375211	0.924270	-0.992588	0.118393	-0.027425	-0.099137	-0.919348	-0.380752
03825														9.133934	-0.278656	-3.728044	0.037013	-0.006241	-0.002303	-0.853760	-0.310303	0.305420	-0.070267	-0.375264	0.924251	-0.992610	0.118201	-0.027472	-0.098938	-0.919351	-0.380796
03826														9.096305	-0.196518	-3.722956	0.031784	-0.009666	-0.003141	-0.853760	-0.310303	0.300537	-0.070240	-0.375343	0.924221	-0.992625	0.118066	-0.027490	-0.098801	-0.919336	-0.380868
03827														9.083665	-0.208698	-3.741500	0.024854	-0.009885	-0.004380	-0.848877	-0.316650	0.310059	-0.070198	-0.375431	0.924188	-0.992636	0.117979	-0.027471	-0.098721	-0.919311	-0.380949
03828														9.121747	-0.243979	-3.712558	0.020802	-0.007313	-0.007218	-0.849121	-0.314697	0.314941	-0.070125	-0.375491	0.924169	-0.992643	0.117936	-0.027404	-0.098703	-0.919292	-0.380999
03829														9.111767	-0.276833	-3.719021	0.024355	-0.008739	-0.006198	-0.849121	-0.314697	0.314941	-0.070065	-0.375571	0.924141	-0.992655	0.117846	-0.027366	-0.098629	-0.919271	-0.381070
03830														9.105270	-0.283084	-3.778856	0.022743	-0.007068	-0.006200	-0.851074	-0.316650	0.312500	-0.069987	-0.375645	0.924117	-0.992668	0.117748	-0.027315	-0.098553	-0.919253	-0.381132
03831														9.059614	-0.301859	-3.702450	0.024444	-0.010274	-0.005796	-0.855957	-0.308105	0.312500	-0.069931	-0.375739	0.924083	-0.992679	0.117660	-0.027281	-0.098477	-0.919226	-0.381217
03832														9.108177	-0.257003	-3.733299	0.030440	-0.012598	-0.001939	-0.851318	-0.312500	0.314941	-0.069913	-0.375851	0.924039	-0.992694	0.117526	-0.027305	-0.098336	-0.919197	-0.381322
03833														9.123501	-0.220026	-3.769988	0.033121	-0.010045	0.001511	-0.851563	-0.308105	0.310059	-0.069930	-0.375934	0.924004	-0.992709	0.117385	-0.027372	-0.098174	-0.919181	-0.381402
03834														9.115886	-0.275140	-3.764945	0.035698	-0.017232	-0.000513	-0.855957	-0.308105	0.314697	-0.069933	-0.376087	0.923941	-0.992729	0.117207	-0.027431	-0.097976	-0.919141	-0.381549
03835														9.094314	-0.272360	-3.754530	0.034588	-0.016708	0.001303	-0.851318	-0.314697	0.312500	-0.069954	-0.376232	0.923881	-0.992745	0.117051	-0.027502	-0.097794	-0.919102	-0.381691
03836														9.066718	-0.275018	-3.702606	0.032649	-0.016958	0.000286	-0.851318	-0.314697	0.314941	-0.069964	-0.376382	0.923819	-0.992761	0.116905	-0.027556	-0.097627	-0.919059	-0.381836
03837														9.093062	-0.274773	-3.757384	0.030209	-0.016063	-0.002551	-0.849121	-0.312500	0.310059	-0.069947	-0.376525	0.923762	-0.992776	0.116775	-0.027575	-0.097490	-0.919017	-0.381973
03838														9.129380	-0.241073	-3.705780	0.027157	-0.015785	-0.001751	-0.853516	-0.314453	0.310059	-0.069929	-0.376666	0.923706	-0.992788	0.116670	-0.027583	-0.097379	-0.918973	-0.382108
03839														9.104207	-0.264913	-3.742418	0.029710	-0.014921	-0.004370	-0.853516	-0.312500	0.314697	-0.069892	-0.376801	0.923654	-0.992803	0.116538	-0.027583	-0.097247	-0.918934	-0.382234
03840														9.092432	-0.228741	-3.726171	0.027770	-0.015171	-0.005387	-0.851563	-0.308105	0.314697	-0.069842	-0.376938	0.923602	-0.992817	0.116421	-0.027562	-0.097138	-0.918893	-0.382362
03841														9.022831	-0.222852	-3.750948	0.025742	-0.013888	-0.006807	-0.853760	-0.305908	0.310059	-0.069780	-0.377066	0.923554	-0.992831	0.116317	-0.027525	-0.097046	-0.918853	-0.382479
03842														9.058142	-0.237039	-3.734458	0.030827	-0.015454	-0.006187	-0.849121	-0.312500	0.310059	-0.069733	-0.377205	0.923501	-0.992848	0.116172	-0.027519	-0.096905	-0.918815	-0.382609
03843														9.066244	-0.253296	-3.765155	0.029125	-0.012250	-0.006595	-0.849121	-0.314697	0.314941	-0.069672	-0.377318	0.923459	-0.992864	0.116037	-0.027496	-0.096781	-0.918785	-0.382710
03844														9.065767	-0.253733	-3.766274	0.027273	-0.014033	-0.007206	-0.849121	-0.312500	0.310059	-0.069598	-0.377449	0.923411	-0.992880	0.115913	-0.027454	-0.096673	-0.918747	-0.382829
03845														9.067956	-0.275375	-3.755273	0.028342	-0.009800	-0.003767	-0.846680	-0.316650	0.312500	-0.069563	-0.377536	0.923379	-0.992894	0.115796	-0.027455	-0.096558	-0.918726	-0.382908
03846														9.065002	-0.254989	-3.768031	0.028255	-0.008269	-0.004171	-0.846924	-0.310303	0.307861	-0.069512	-0.377608	0.923353	-0.992908	0.115677	-0.027442	-0.096449	-0.918711	-0.382971
03847														9.085627	-0.259886	-3.780562	0.024090	-0.007458	-0.001554	-0.849365	-0.305908	0.314697	-0.069496	-0.377671	0.923328	-0.992916	0.115607	-0.027447	-0.096378	-0.918694	-0.383030
03848														9.097598	-0.249073	-3.763738	0.028434	-0.011337	-0.003361	-0.849121	-0.310303	0.310059	-0.069469	-0.377769	0.923290	-0.992929	0.115495	-0.027454	-0.096264	-0.918668	-0.383121
03849														9.076272	-0.245641	-3.752802	0.025381	-0.011057	-0.002560	-0.855713	-0.314697	0.314941	-0.069447	-0.377866	0.923252	-0.992939	0.115409	-0.027454	-0.096178	-0.918639	-0.383213
03850														9.042625	-0.253798	-3.759464	0.028437	-0.011340	-0.003361	-0.855957	-0.310303	0.312500	-0.069415	-0.377964	0.923214	-0.992951	0.115298	-0.027456	-0.096068	-0.918613	-0.383303
03851														9.064248	-0.210284	-3.737204	0.029877	-0.009949	-0.004167	-0.853516	-0.314697	0.312500	-0.069376	-0.378052	0.923181	-0.992967	0.115166	-0.027459	-0.095938	-0.918593	-0.383383
03852														9.084827	-0.215165	-3.749854	0.026735	-0.008136	-0.003772	-0.855713	-0.312500	0.312500	-0.069340	-0.378119	0.923156	-0.992978	0.115074	-0.027451	-0.095851	-0.918577	-0.383443
03853														9.072228	-0.227435	-3.768063	0.029702	-0.006886	-0.004979	-0.846924	-0.310303	0.312500	-0.069290	-0.378180	0.923135	-0.992993	0.114939	-0.027446	-0.095725	-0.918569	-0.383495
03854														9.086911	-0.237508	-3.739068	0.030904	-0.008953	-0.006389	-0.853760	-0.310303	0.310059	-0.069228	-0.378259	0.923107	-0.993010	0.114795	-0.027431	-0.095592	-0.918554	-0.383562
03855														9.062969	-0.212742	-3.740164	0.031780	-0.012944	-0.008807	-0.853760	-0.310303	0.307617	-0.069145	-0.378381	0.923064	-0.993031	0.114627	-0.027398	-0.095441	-0.918525	-0.383670
03856														9.086130	-0.238564	-3.740900	0.034378	-0.008847	-0.005776	-0.851318	-0.314697	0.314941	-0.069098	-0.378449	0.923039	-0.993048	0.114473	-0.027404	-0.095292	-0.918516	-0.383728
03857														9.070880	-0.229727	-3.771169	0.033370	-0.006568	-0.009420	-0.849121	-0.312500	0.314941	-0.069003	-0.378513	0.923020	-0.993071	0.114288	-0.027372	-0.095129	-0.918513	-0.383776
03858														9.123554	-0.275644	-3.813150	0.033122	-0.013305	-0.004152	-0.849121	-0.312500	0.314941	-0.068960	-0.378634	0.922974	-0.993089	0.114121	-0.027382	-0.094963	-0.918484	-0.383887
03859														9.071605	-0.300797	-3.795876	0.033034	-0.011775	-0.004560	-0.849365	-0.308105	0.317139	-0.068918	-0.378739	0.922934	-0.993108	0.113958	-0.027393	-0.094801	-0.918461	-0.383983
03860														9.059943	-0.264765	-3.779506	0.036092	-0.012060	-0.005362	-0.853516	-0.312500	0.314697	-0.068866	-0.378851	0.922892	-0.993131	0.113756	-0.027409	-0.094600	-0.918440	-0.384083
03861														9.031548	-0.315029	-3.762037	0.033824	-0.014239	-0.007382	-0.849121	-0.312500	0.310059	-0.068798	-0.378983	0.922843	-0.993152	0.113575	-0.027398	-0.094428	-0.918408	-0.384201
03862														9.079900	-0.270298	-3.793569	0.035174	-0.011318	-0.008600	-0.846680	-0.316650	0.314941	-0.068716	-0.379084	0.922807	-0.993174	0.113387	-0.027377	-0.094257	-0.918389	-0.384288
03863														9.058561	-0.266589	-3.782690	0.034850	-0.013246	-0.009606	-0.851318	-0.314697	0.317139	-0.068625	-0.379209	0.922763	-0.993197	0.113188	-0.027349	-0.094075	-0.918362	-0.384397
03864														9.058115	-0.267017	-3.783728	0.034762	-0.011716	-0.010014	-0.851563	-0.308105	0.312500	-0.068517	-0.379323	0.922724	-0.993222	0.112981	-0.027307	-0.093892	-0.918341	-0.384493
03865														9.049072	-0.251416	-3.755445	0.034112	-0.015571	-0.012025	-0.855713	-0.312500	0.310059	-0.068405	-0.379472	0.922671	-0.993246	0.112779	-0.027254	-0.093716	-0.918304	-0.384624
03866														9.045865	-0.230497	-3.768856	0.032080	-0.014293	-0.013447	-0.849121	-0.312500	0.319580	-0.068287	-0.379600	0.922627	-0.993267	0.112614	-0.027182	-0.093583	-0.918271	-0.384735
03867														9.048060	-0.251425	-3.757884	0.034632	-0.013443	-0.016074	-0.846924	-0.312500	0.317139	-0.068132	-0.379734	0.922583	-0.993294	0.112392	-0.027093	-0.093403	-0.918243	-0.384845
03868														9.053490	-0.246161	-3.800505	0.031487	-0.011628	-0.015680	-0.842529	-0.308105	0.307861	-0.067971	-0.379856	0.922545	-0.993320	0.112187	-0.026993	-0.093245	-0.918217	-0.384945
03869														9.068096	-0.255317	-3.771871	0.033524	-0.012909	-0.014258	-0.846924	-0.310303	0.307861	-0.067834	-0.379983	0.922503	-0.993346	0.111983	-0.026917	-0.093077	-0.918190	-0.385051
03870														9.070339	-0.276302	-3.760796	0.036583	-0.013196	-0.015061	-0.846924	-0.310303	0.314697	-0.067696	-0.380103	0.922464	-0.993371	0.111771	-0.026844	-0.092901	-0.918166	-0.385149
03871														9.067237	-0.255478	-3.773926	0.031630	-0.009909	-0.009623	-0.844727	-0.312500	0.317139	-0.067601	-0.380197	0.922432	-0.993392	0.111601	-0.026803	-0.092754	-0.918148	-0.385229
03872														9.075264	-0.271766	-3.804542	0.037369	-0.018932	-0.012003	-0.851318	-0.312500	0.317139	-0.067488	-0.380378	0.922366	-0.993419	0.111365	-0.026760	-0.092541	-0.918102	-0.385390
03873														9.071907	-0.251140	-3.818248	0.033111	-0.016579	-0.009794	-0.846924	-0.312500	0.322021	-0.067398	-0.380533	0.922308	-0.993441	0.111181	-0.026724	-0.092374	-0.918059	-0.385531
03874														9.086423	-0.260680	-3.789856	0.031401	-0.013375	-0.010215	-0.851318	-0.312500	0.319580	-0.067296	-0.380664	0.922261	-0.993462	0.111000	-0.026676	-0.092217	-0.918027	-0.385645
03875														9.064968	-0.256786	-3.779285	0.033207	-0.018115	-0.009382	-0.846924	-0.310303	0.319580	-0.067211	-0.380833	0.922198	-0.993484	0.110817	-0.026644	-0.092048	-0.917979	-0.385800
03876														9.094819	-0.228683	-3.787510	0.033209	-0.018117	-0.009382	-0.849121	-0.312500	0.317139	-0.067124	-0.381006	0.922133	-0.993506	0.110624	-0.026612	-0.091871	-0.917931	-0.385957
03877														9.069440	-0.252574	-3.824010	0.032794	-0.018517	-0.010795	-0.846924	-0.312500	0.312500	-0.067026	-0.381181	0.922068	-0.993528	0.110439	-0.026565	-0.091706	-0.917881	-0.386116
03878														9.083793	-0.262133	-3.796056	0.033398	-0.021184	-0.008557	-0.849121	-0.310303	0.310059	-0.066953	-0.381373	0.921994	-0.993548	0.110265	-0.026539	-0.091543	-0.917822	-0.386295
03879														9.049841	-0.269937	-3.803268	0.036459	-0.018215	-0.015242	-0.849121	-0.312500	0.319580	-0.066810	-0.381549	0.921931	-0.993576	0.110030	-0.026465	-0.091342	-0.917777	-0.386449
03880														9.067264	-0.253169	-3.829128	0.031642	-0.021250	-0.014620	-0.844727	-0.310303	0.317139	-0.066681	-0.381747	0.921859	-0.993598	0.109854	-0.026379	-0.091200	-0.917716	-0.386628
03881														9.038762	-0.302637	-3.811941	0.029421	-0.020169	-0.010989	-0.849121	-0.314697	0.314941	-0.066582	-0.381936	0.921787	-0.993616	0.109699	-0.026317	-0.091068	-0.917655	-0.386802
03882														9.065683	-0.253123	-3.832872	0.026827	-0.024287	-0.013997	-0.846924	-0.312500	0.317139	-0.066457	-0.382164	0.921702	-0.993634	0.109562	-0.026215	-0.090965	-0.917577	-0.387012
03883														9.070376	-0.294848	-3.810322	0.025949	-0.020285	-0.011596	-0.844482	-0.316895	0.322021	-0.066352	-0.382355	0.921630	-0.993650	0.109437	-0.026135	-0.090868	-0.917512	-0.387188
03884														9.061109	-0.278646	-3.782809	0.022568	-0.021931	-0.011788	-0.849121	-0.314697	0.322021	-0.066238	-0.382565	0.921551	-0.993664	0.109333	-0.026033	-0.090797	-0.917437	-0.387383
03885														9.045210	-0.269374	-3.814308	0.021365	-0.019859	-0.010386	-0.842285	-0.314697	0.324219	-0.066145	-0.382751	0.921481	-0.993675	0.109255	-0.025947	-0.090745	-0.917369	-0.387556
03886														9.044385	-0.269240	-3.816273	0.021229	-0.024854	-0.010556	-0.846924	-0.310303	0.321777	-0.066043	-0.382991	0.921388	-0.993688	0.109156	-0.025852	-0.090674	-0.917280	-0.387783
03887														9.016056	-0.271762	-3.865244	0.019327	-0.018587	-0.011809	-0.844727	-0.312500	0.322021	-0.065934	-0.383167	0.921323	-0.993698	0.109091	-0.025744	-0.090643	-0.917215	-0.387945
03888														9.040108	-0.247915	-3.832115	0.020258	-0.019319	-0.008570	-0.846924	-0.310303	0.319580	-0.065855	-0.383351	0.921252	-0.993708	0.109017	-0.025671	-0.090591	-0.917147	-0.388118
03889														9.003375	-0.234384	-3.851504	0.020440	-0.019133	-0.013625	-0.849121	-0.314697	0.324219	-0.065729	-0.383533	0.921185	-0.993721	0.108934	-0.025551	-0.090549	-0.917080	-0.388285
03890														9.013909	-0.271050	-3.870296	0.020954	-0.020266	-0.011798	-0.851318	-0.314697	0.314941	-0.065621	-0.383727	0.921112	-0.993733	0.108846	-0.025450	-0.090494	-0.917009	-0.388465
03891														8.992371	-0.266682	-3.859933	0.024662	-0.016690	-0.010613	-0.846924	-0.310303	0.314697	-0.065522	-0.383884	0.921054	-0.993747	0.108737	-0.025374	-0.090412	-0.916957	-0.388608
03892														9.004185	-0.254924	-3.843885	0.023876	-0.014215	-0.007800	-0.849121	-0.310303	0.324219	-0.065458	-0.384005	0.921008	-0.993756	0.108669	-0.025320	-0.090362	-0.916914	-0.388720
03893														9.012214	-0.271288	-3.874227	0.027071	-0.009508	-0.008442	-0.849121	-0.314697	0.317139	-0.065375	-0.384094	0.920977	-0.993770	0.108545	-0.025274	-0.090260	-0.916892	-0.388797
03894														9.003394	-0.255310	-3.845712	0.026235	-0.010312	-0.011266	-0.848877	-0.316650	0.319580	-0.065267	-0.384191	0.920944	-0.993786	0.108421	-0.025199	-0.090168	-0.916865	-0.388880
03895														8.981168	-0.300126	-3.868727	0.027207	-0.004515	-0.008278	-0.842529	-0.310303	0.319580	-0.065181	-0.384234	0.920932	-0.993800	0.108297	-0.025154	-0.090069	-0.916862	-0.388911
03896														9.002940	-0.255636	-3.846755	0.026466	-0.006851	-0.010685	-0.842285	-0.314697	0.319580	-0.065071	-0.384300	0.920912	-0.993816	0.108171	-0.025082	-0.089977	-0.916849	-0.388962
03897														8.993263	-0.288542	-3.852029	0.026924	0.000076	-0.009526	-0.844482	-0.314697	0.322021	-0.064969	-0.384302	0.920919	-0.993831	0.108045	-0.025025	-0.089883	-0.916863	-0.388951
03898														9.036014	-0.248032	-3.841750	0.025441	-0.004595	-0.014339	-0.842285	-0.314697	0.319580	-0.064815	-0.384355	0.920907	-0.993849	0.107906	-0.024913	-0.089796	-0.916858	-0.388985
03899														9.015095	-0.243568	-3.829957	0.026089	-0.000730	-0.012349	-0.846680	-0.316650	0.319580	-0.064685	-0.384367	0.920911	-0.993865	0.107776	-0.024826	-0.089710	-0.916868	-0.388981
03900														9.017986	-0.264366	-3.817472	0.026318	0.002733	-0.011771	-0.844482	-0.316895	0.324219	-0.064552	-0.384347	0.920929	-0.993881	0.107646	-0.024740	-0.089626	-0.916891	-0.388944
03901														9.021047	-0.285268	-3.804576	0.026870	0.008130	-0.010199	-0.846924	-0.314697	0.319580	-0.064435	-0.384276	0.920967	-0.993897	0.107517	-0.024676	-0.089538	-0.916936	-0.388859
03902														9.027063	-0.280559	-3.845350	0.023298	0.009544	-0.011218	-0.849121	-0.314697	0.324219	-0.064300	-0.384196	0.921010	-0.993911	0.107410	-0.024584	-0.089481	-0.916982	-0.388763
03903														9.003788	-0.255380	-3.844786	0.022187	0.010090	-0.009403	-0.846680	-0.318848	0.317139	-0.064190	-0.384106	0.921055	-0.993922	0.107328	-0.024509	-0.089441	-0.917030	-0.388660
03904														9.037398	-0.247722	-3.838513	0.022283	0.008558	-0.008985	-0.846924	-0.312500	0.317139	-0.064080	-0.384029	0.921095	-0.993932	0.107247	-0.024434	-0.089401	-0.917072	-0.388571
03905														9.016968	-0.243593	-3.825545	0.019869	0.012713	-0.006190	-0.847168	-0.308105	0.317139	-0.064000	-0.383911	0.921149	-0.993939	0.107198	-0.024380	-0.089385	-0.917126	-0.388445
03906														9.038360	-0.248122	-3.836223	0.023253	0.014359	-0.006005	-0.844482	-0.314697	0.317139	-0.063929	-0.383772	0.921212	-0.993947	0.107133	-0.024346	-0.089349	-0.917192	-0.388297
03907														9.026594	-0.260389	-3.852125	0.021628	0.016032	-0.006018	-0.846924	-0.312500	0.324219	-0.063847	-0.383623	0.921280	-0.993955	0.107069	-0.024300	-0.089318	-0.917262	-0.388140
03908														9.072815	-0.241110	-3.827888	0.023578	0.016291	-0.005011	-0.846924	-0.314697	0.319580	-0.063773	-0.383473	0.921348	-0.993964	0.106987	-0.024271	-0.089265	-0.917334	-0.387981
03909														9.037405	-0.228393	-3.844117	0.022048	0.016433	-0.004607	-0.847168	-0.308105	0.321777	-0.063705	-0.383320	0.921416	-0.993972	0.106924	-0.024240	-0.089230	-0.917406	-0.387820
03910														9.038092	-0.228650	-3.842486	0.022554	0.018540	-0.008670	-0.849121	-0.314697	0.324219	-0.063598	-0.383152	0.921493	-0.993982	0.106839	-0.024178	-0.089188	-0.917486	-0.387641
03911														9.054017	-0.237817	-3.810981	0.022277	0.019896	-0.004033	-0.849121	-0.314697	0.319580	-0.063533	-0.382966	0.921575	-0.993990	0.106777	-0.024153	-0.089153	-0.917571	-0.387448
03912														9.042446	-0.249965	-3.826462	0.020514	0.019806	-0.010096	-0.842529	-0.312500	0.317139	-0.063405	-0.382789	0.921657	-0.994000	0.106702	-0.024066	-0.089131	-0.917653	-0.387258
03913														9.037567	-0.254600	-3.782836	0.017079	0.022981	-0.005073	-0.846924	-0.312500	0.319580	-0.063326	-0.382576	0.921751	-0.994003	0.106683	-0.024011	-0.089149	-0.917744	-0.387038
03914														9.035634	-0.234030	-3.793102	0.019028	0.023241	-0.004065	-0.846924	-0.314697	0.314941	-0.063258	-0.382359	0.921846	-0.994008	0.106650	-0.023974	-0.089148	-0.917838	-0.386815
03915														9.024188	-0.246297	-3.808307	0.018612	0.022834	-0.005476	-0.842285	-0.314697	0.319580	-0.063176	-0.382148	0.921939	-0.994012	0.106616	-0.023922	-0.089152	-0.917930	-0.386595
03916														9.045956	-0.250779	-3.818102	0.018614	0.022833	-0.005476	-0.842285	-0.314697	0.319580	-0.063091	-0.381935	0.922033	-0.994017	0.106583	-0.023866	-0.089158	-0.918023	-0.386375
03917														9.082898	-0.264164	-3.798056	0.020468	0.024622	-0.004886	-0.848877	-0.316650	0.319580	-0.063012	-0.381707	0.922133	-0.994024	0.106534	-0.023827	-0.089143	-0.918123	-0.386139
03918														9.083782	-0.264561	-3.795913	0.023722	0.021273	-0.004851	-0.846924	-0.312500	0.322021	-0.062931	-0.381512	0.922219	-0.994034	0.106447	-0.023796	-0.089089	-0.918214	-0.385935
03919														9.102697	-0.248332	-3.818210	0.027391	0.021557	-0.009298	-0.846924	-0.312500	0.317139	-0.062812	-0.381317	0.922308	-0.994049	0.106317	-0.023742	-0.089004	-0.918311	-0.385725
03920														9.086528	-0.169865	-3.824253	0.029340	0.021816	-0.008288	-0.842285	-0.316650	0.317139	-0.062703	-0.381120	0.922397	-0.994066	0.106168	-0.023708	-0.088893	-0.918410	-0.385515
03921														9.057857	-0.149362	-3.781208	0.024615	0.020479	-0.013130	-0.844727	-0.310303	0.314941	-0.062547	-0.380938	0.922483	-0.994081	0.106049	-0.023608	-0.088835	-0.918499	-0.385316
03922														9.073786	-0.157877	-3.749473	0.024522	0.022006	-0.013550	-0.849121	-0.314697	0.319580	-0.062384	-0.380742	0.922575	-0.994096	0.105930	-0.023503	-0.088780	-0.918594	-0.385102
03923														9.098256	-0.182346	-3.747088	0.024168	0.016770	-0.020165	-0.844482	-0.314697	0.312500	-0.062161	-0.380601	0.922648	-0.994115	0.105789	-0.023336	-0.088724	-0.918668	-0.384937
03924														9.134076	-0.243621	-3.761657	0.025702	0.016624	-0.020566	-0.846924	-0.312500	0.314941	-0.061934	-0.380461	0.922721	-0.994135	0.105636	-0.023171	-0.088657	-0.918744	-0.384772
03925														9.104293	-0.271408	-3.753274	0.024872	0.012588	-0.017491	-0.851318	-0.314697	0.319580	-0.061741	-0.380356	0.922777	-0.994153	0.105499	-0.023032	-0.088592	-0.918803	-0.384645
03926														9.047843	-0.253650	-3.758257	0.027426	0.010199	-0.014226	-0.846924	-0.310303	0.314697	-0.061587	-0.380268	0.922824	-0.994170	0.105354	-0.022936	-0.088501	-0.918856	-0.384539
03927														9.087176	-0.241427	-3.793648	0.027521	0.005450	-0.007907	-0.846924	-0.314697	0.319580	-0.061496	-0.380218	0.922850	-0.994185	0.105228	-0.022895	-0.088405	-0.918891	-0.384478
03928														9.120658	-0.233986	-3.787448	0.026214	0.009058	-0.006939	-0.842529	-0.310303	0.322021	-0.061415	-0.380134	0.922890	-0.994197	0.105119	-0.022862	-0.088322	-0.918938	-0.384384
03929														9.084837	-0.221267	-3.804940	0.030045	-0.000242	-0.010263	-0.849121	-0.314697	0.319580	-0.061305	-0.380140	0.922895	-0.994215	0.104961	-0.022810	-0.088197	-0.918954	-0.384375
03930														9.094140	-0.234826	-3.733376	0.028226	0.001270	-0.005229	-0.842285	-0.316650	0.319580	-0.061243	-0.380133	0.922902	-0.994229	0.104823	-0.022801	-0.088074	-0.918973	-0.384359
03931														9.100796	-0.181486	-3.740957	0.028100	-0.000509	-0.011273	-0.844482	-0.316895	0.322021	-0.061124	-0.380141	0.922906	-0.994246	0.104680	-0.022731	-0.087968	-0.918986	-0.384353
03932														9.134003	-0.173626	-3.735438	0.029124	0.000465	-0.013506	-0.853516	-0.312500	0.319580	-0.060969	-0.380153	0.922912	-0.994268	0.104496	-0.022641	-0.087834	-0.919002	-0.384344
03933														9.130381	-0.201753	-3.781924	0.029510	-0.002435	-0.017716	-0.849121	-0.310303	0.314697	-0.060788	-0.380186	0.922910	-0.994289	0.104315	-0.022517	-0.087713	-0.919009	-0.384356
03934														9.118783	-0.163932	-3.765601	0.031429	-0.005481	-0.022325	-0.849121	-0.314697	0.314941	-0.060575	-0.380248	0.922899	-0.994314	0.104108	-0.022368	-0.087576	-0.919007	-0.384392
03935														9.118539	-0.162988	-3.766232	0.032327	-0.009503	-0.024699	-0.851318	-0.314697	0.312500	-0.060330	-0.380353	0.922871	-0.994343	0.103875	-0.022191	-0.087423	-0.918989	-0.384468
03936														9.103105	-0.153247	-3.796889	0.033448	-0.010059	-0.026510	-0.849121	-0.314697	0.319580	-0.060076	-0.380457	0.922845	-0.994371	0.103644	-0.022004	-0.087276	-0.918973	-0.384542
03937														9.048619	-0.155473	-3.791481	0.030771	-0.012675	-0.029917	-0.842041	-0.321045	0.310303	-0.059782	-0.380596	0.922807	-0.994401	0.103405	-0.021773	-0.087137	-0.918942	-0.384647
03938														9.020681	-0.203492	-3.773043	0.033329	-0.015057	-0.026648	-0.846680	-0.318848	0.319580	-0.059521	-0.380751	0.922760	-0.994430	0.103163	-0.021576	-0.086979	-0.918905	-0.384771
03939														9.056266	-0.215096	-3.756232	0.031191	-0.012271	-0.028506	-0.844482	-0.314697	0.326660	-0.059240	-0.380886	0.922723	-0.994460	0.102925	-0.021360	-0.086835	-0.918876	-0.384873
03940														9.046527	-0.200739	-3.828748	0.026593	-0.011840	-0.027304	-0.844482	-0.316650	0.312500	-0.058963	-0.381024	0.922683	-0.994487	0.102712	-0.021136	-0.086717	-0.918842	-0.384979
03941														9.082861	-0.162845	-3.778049	0.028226	-0.013515	-0.027280	-0.849121	-0.314697	0.314941	-0.058696	-0.381168	0.922640	-0.994512	0.102506	-0.020920	-0.086602	-0.918805	-0.385093
03942														9.063663	-0.227150	-3.788636	0.026281	-0.013784	-0.028289	-0.842285	-0.316650	0.317139	-0.058426	-0.381308	0.922600	-0.994535	0.102333	-0.020688	-0.086524	-0.918767	-0.385203
03943														9.081264	-0.209141	-3.814144	0.023532	-0.011559	-0.026503	-0.846680	-0.316650	0.319580	-0.058165	-0.381434	0.922564	-0.994556	0.102173	-0.020460	-0.086457	-0.918732	-0.385300
03944														9.102371	-0.162486	-3.793474	0.026067	-0.017256	-0.028848	-0.846436	-0.323242	0.319580	-0.057884	-0.381615	0.922507	-0.994581	0.101979	-0.020221	-0.086360	-0.918679	-0.385450
03945														9.044839	-0.143911	-3.800943	0.026702	-0.013379	-0.026880	-0.848877	-0.318848	0.319580	-0.057621	-0.381757	0.922465	-0.994605	0.101789	-0.020002	-0.086260	-0.918641	-0.385563
03946														9.023422	-0.138275	-3.790335	0.028337	-0.015052	-0.026855	-0.844727	-0.312500	0.319580	-0.057354	-0.381915	0.922416	-0.994630	0.101582	-0.019785	-0.086145	-0.918598	-0.385691
03947														9.092109	-0.141676	-3.768399	0.028024	-0.016995	-0.027838	-0.840088	-0.316895	0.322021	-0.057084	-0.382092	0.922360	-0.994656	0.101376	-0.019563	-0.086030	-0.918547	-0.385837
03948														9.079258	-0.152415	-3.787133	0.028027	-0.016998	-0.027838	-0.842041	-0.323242	0.312500	-0.056814	-0.382273	0.922301	-0.994682	0.101158	-0.019345	-0.085903	-0.918496	-0.385987
03949														9.069903	-0.134557	-3.759763	0.029863	-0.021725	-0.026960	-0.842285	-0.314697	0.324219	-0.056557	-0.382492	0.922226	-0.994709	0.100938	-0.019138	-0.085768	-0.918429	-0.386177
03950														9.059881	-0.166133	-3.766172	0.031200	-0.018818	-0.028215	-0.844482	-0.318848	0.317383	-0.056281	-0.382686	0.922163	-0.994737	0.100700	-0.018921	-0.085621	-0.918374	-0.386339
03951														9.062180	-0.185733	-3.755197	0.029893	-0.018404	-0.021348	-0.839844	-0.318848	0.324463	-0.056076	-0.382869	0.922099	-0.994760	0.100501	-0.018766	-0.085487	-0.918320	-0.386498
03952														9.072913	-0.176410	-3.840194	0.024878	-0.018390	-0.021552	-0.846680	-0.316895	0.322021	-0.055865	-0.383055	0.922035	-0.994780	0.100338	-0.018588	-0.085395	-0.918260	-0.386661
03953														9.078771	-0.167724	-3.783010	0.032878	-0.020361	-0.016670	-0.837646	-0.318848	0.319580	-0.055709	-0.383251	0.921963	-0.994803	0.100130	-0.018487	-0.085230	-0.918201	-0.386837
03954														9.047860	-0.196209	-3.777464	0.030226	-0.019662	-0.014457	-0.844238	-0.321045	0.322021	-0.055573	-0.383441	0.921892	-0.994823	0.099948	-0.018398	-0.085086	-0.918141	-0.387010
03955														9.044184	-0.175273	-3.791766	0.029713	-0.018552	-0.016293	-0.846680	-0.321045	0.319580	-0.055419	-0.383620	0.921827	-0.994842	0.099770	-0.018289	-0.084954	-0.918086	-0.387170
03956														9.052228	-0.191542	-3.822277	0.030342	-0.014670	-0.014331	-0.846680	-0.321045	0.324463	-0.055278	-0.383761	0.921777	-0.994862	0.099594	-0.018198	-0.084820	-0.918046	-0.387294
03957														9.048710	-0.170796	-3.836167	0.029225	-0.014112	-0.012521	-0.842285	-0.316650	0.319580	-0.055158	-0.383895	0.921728	-0.994879	0.099435	-0.018121	-0.084695	-0.918007	-0.387414
03958														9.066446	-0.199815	-3.794920	0.027692	-0.013970	-0.012118	-0.839844	-0.323242	0.317383	-0.055041	-0.384029	0.921679	-0.994895	0.099288	-0.018044	-0.084582	-0.917967	-0.387533
03959														9.059921	-0.158599	-3.821466	0.027091	-0.014522	-0.008470	-0.842285	-0.316895	0.326660	-0.054962	-0.384163	0.921628	-0.994908	0.099164	-0.017997	-0.084478	-0.917924	-0.387657
03960														9.032898	-0.158633	-3.769030	0.028008	-0.012031	-0.011139	-0.837646	-0.321045	0.322021	-0.054848	-0.384280	0.921586	-0.994925	0.099013	-0.017927	-0.084360	-0.917892	-0.387760
03961														9.061938	-0.179522	-3.811143	0.028214	-0.015085	-0.010281	-0.835205	-0.323242	0.324463	-0.054750	-0.384421	0.921533	-0.994940	0.098871	-0.017867	-0.084245	-0.917848	-0.387889
03962														9.049819	-0.142300	-3.795891	0.024424	-0.010637	-0.012170	-0.844482	-0.318848	0.317383	-0.054615	-0.384531	0.921495	-0.994955	0.098736	-0.017767	-0.084153	-0.917816	-0.387984
03963														9.049401	-0.142158	-3.796893	0.026063	-0.012308	-0.012144	-0.846680	-0.318848	0.326660	-0.054497	-0.384649	0.921453	-0.994969	0.098608	-0.017682	-0.084061	-0.917781	-0.388087
03964														9.036741	-0.154555	-3.814979	0.025673	-0.009387	-0.007947	-0.844238	-0.321045	0.324463	-0.054422	-0.384734	0.921422	-0.994981	0.098501	-0.017637	-0.083976	-0.917757	-0.388163
03965														9.051646	-0.163076	-3.786054	0.025361	-0.011332	-0.008925	-0.844482	-0.316650	0.319580	-0.054334	-0.384839	0.921383	-0.994993	0.098391	-0.017580	-0.083891	-0.917725	-0.388258
03966														9.018082	-0.171385	-3.792256	0.025778	-0.010916	-0.007517	-0.842285	-0.318848	0.319580	-0.054264	-0.384938	0.921346	-0.995004	0.098285	-0.017539	-0.083803	-0.917694	-0.388348
03967														9.071754	-0.167639	-3.799810	0.018705	-0.009650	-0.009150	-0.839844	-0.321045	0.322021	-0.054173	-0.385028	0.921314	-0.995010	0.098235	-0.017453	-0.083786	-0.917662	-0.388428
03968														9.041239	-0.196511	-3.793268	0.021693	-0.011593	-0.004470	-0.844238	-0.321045	0.322021	-0.054129	-0.385130	0.921274	-0.995016	0.098177	-0.017420	-0.083739	-0.917625	-0.388525
03969														9.034709	-0.155390	-3.819755	0.020031	-0.013268	-0.010100	-0.844238	-0.323242	0.324463	-0.054032	-0.385254	0.921227	-0.995024	0.098112	-0.017331	-0.083707	-0.917580	-0.388638
03970														9.055192	-0.159739	-3.832609	0.021489	-0.008542	-0.005331	-0.844482	-0.318848	0.322021	-0.053975	-0.385331	0.921199	-0.995031	0.098049	-0.017288	-0.083661	-0.917555	-0.388708
03971														9.013033	-0.151541	-3.809701	0.021281	-0.012014	-0.005877	-0.842285	-0.318848	0.326660	-0.053919	-0.385439	0.921157	-0.995038	0.097988	-0.017242	-0.083616	-0.917516	-0.388810
03972														9.045758	-0.143542	-3.805511	0.018811	-0.011182	-0.008719	-0.839600	-0.325439	0.319580	-0.053834	-0.385545	0.921117	-0.995045	0.097933	-0.017164	-0.083590	-0.917477	-0.388907
03973														9.015278	-0.172327	-3.798876	0.021076	-0.008963	-0.006739	-0.842285	-0.318848	0.322021	-0.053767	-0.385626	0.921087	-0.995052	0.097871	-0.017110	-0.083549	-0.917450	-0.388980
03974														9.050620	-0.139798	-3.848898	0.019541	-0.008819	-0.006336	-0.842285	-0.318848	0.322021	-0.053700	-0.385704	0.921059	-0.995057	0.097827	-0.017048	-0.083529	-0.917422	-0.389051
03975														9.044730	-0.143955	-3.807939	0.019542	-0.008820	-0.006336	-0.842285	-0.318848	0.329102	-0.053636	-0.385783	0.921029	-0.995063	0.097780	-0.016991	-0.083504	-0.917393	-0.389123
03976														9.062815	-0.172942	-3.766086	0.019439	-0.007295	-0.006767	-0.839844	-0.318848	0.324463	-0.053566	-0.385854	0.921004	-0.995070	0.097722	-0.016934	-0.083469	-0.917370	-0.389186
03977														9.031922	-0.156489	-3.826296	0.014314	-0.005756	-0.007394	-0.837646	-0.323242	0.324463	-0.053490	-0.385906	0.920986	-0.995071	0.097719	-0.016847	-0.083497	-0.917348	-0.389231
03978														9.013845	-0.173001	-3.802244	0.020377	-0.007982	-0.003521	-0.842041	-0.321045	0.329102	-0.053446	-0.385980	0.920958	-0.995077	0.097663	-0.016816	-0.083452	-0.917323	-0.389300
03979														9.028363	-0.136384	-3.840189	0.016683	-0.005062	-0.004984	-0.840088	-0.316895	0.322021	-0.053393	-0.386024	0.920942	-0.995080	0.097647	-0.016761	-0.083457	-0.917306	-0.389338
03980														9.064398	-0.149126	-3.822694	0.018635	-0.004787	-0.003981	-0.842285	-0.316895	0.326660	-0.053348	-0.386069	0.920926	-0.995085	0.097606	-0.016725	-0.083431	-0.917292	-0.389378
03981														9.043297	-0.145091	-3.811297	0.017907	-0.007154	-0.006363	-0.844238	-0.323242	0.324463	-0.053283	-0.386133	0.920903	-0.995089	0.097574	-0.016662	-0.083423	-0.917268	-0.389436
03982														9.043077	-0.145320	-3.811811	0.018636	-0.004787	-0.003981	-0.844482	-0.318848	0.319580	-0.053238	-0.386176	0.920887	-0.995093	0.097537	-0.016626	-0.083400	-0.917254	-0.389474
03983														9.037342	-0.149479	-3.770533	0.022411	-0.006063	-0.008006	-0.840088	-0.316895	0.324219	-0.053156	-0.386232	0.920869	-0.995102	0.097458	-0.016565	-0.083348	-0.917239	-0.389521
03984														9.063480	-0.149897	-3.824840	0.017597	-0.009102	-0.007336	-0.844238	-0.323242	0.326660	-0.053089	-0.386312	0.920839	-0.995106	0.097431	-0.016497	-0.083346	-0.917208	-0.389594
03985														9.033734	-0.129055	-3.784570	0.018222	-0.005210	-0.005388	-0.844238	-0.323242	0.326660	-0.053032	-0.386358	0.920823	-0.995109	0.097401	-0.016444	-0.083336	-0.917192	-0.389633
03986														9.054401	-0.133418	-3.796985	0.021997	-0.006486	-0.009413	-0.844238	-0.321045	0.326660	-0.052930	-0.386423	0.920802	-0.995120	0.097309	-0.016366	-0.083278	-0.917174	-0.389688
03987														9.062719	-0.150197	-3.826630	0.021087	-0.008973	-0.006737	-0.842285	-0.318848	0.324219	-0.052863	-0.386504	0.920771	-0.995127	0.097246	-0.016311	-0.083237	-0.917147	-0.389761
03988														9.026189	-0.138022	-3.845239	0.021400	-0.007027	-0.005764	-0.842041	-0.325439	0.317383	-0.052804	-0.386569	0.920748	-0.995134	0.097179	-0.016270	-0.083188	-0.917126	-0.389819
03989														9.062131	-0.150668	-3.828005	0.018017	-0.008685	-0.005928	-0.842041	-0.323242	0.322021	-0.052745	-0.386646	0.920718	-0.995138	0.097148	-0.016212	-0.083178	-0.917097	-0.389891
03990														9.053190	-0.134299	-3.799840	0.022027	-0.009658	-0.003491	-0.840088	-0.314697	0.319580	-0.052709	-0.386725	0.920688	-0.995143	0.097104	-0.016184	-0.083143	-0.917069	-0.389964
03991														9.040634	-0.147205	-3.817529	0.023250	-0.005227	-0.005196	-0.844238	-0.323242	0.324463	-0.052654	-0.386770	0.920672	-0.995151	0.097027	-0.016152	-0.083083	-0.917058	-0.390003
03992														9.001122	-0.114719	-3.848649	0.022131	-0.004660	-0.003385	-0.844482	-0.318848	0.324219	-0.052622	-0.386805	0.920659	-0.995156	0.096976	-0.016137	-0.083040	-0.917048	-0.390034
03993														9.037258	-0.127783	-3.830961	0.025828	-0.001056	-0.002249	-0.842041	-0.323242	0.324463	-0.052593	-0.386809	0.920659	-0.995164	0.096888	-0.016142	-0.082957	-0.917056	-0.390034
03994														9.016320	-0.124192	-3.819173	0.019372	-0.002424	-0.001604	-0.842285	-0.318848	0.324219	-0.052572	-0.386825	0.920653	-0.995167	0.096861	-0.016130	-0.082936	-0.917052	-0.390047
03995														8.983075	-0.133063	-3.824482	0.024398	-0.002438	-0.001411	-0.839844	-0.321045	0.324463	-0.052552	-0.386841	0.920648	-0.995174	0.096789	-0.016137	-0.082866	-0.917053	-0.390060
03996														9.016142	-0.125674	-3.819543	0.021327	-0.002148	-0.000602	-0.839600	-0.325439	0.319580	-0.052541	-0.386854	0.920643	-0.995178	0.096745	-0.016142	-0.082823	-0.917052	-0.390072
03997														9.045594	-0.147505	-3.860409	0.021534	0.001325	-0.000066	-0.842041	-0.323242	0.322021	-0.052532	-0.386835	0.920652	-0.995182	0.096705	-0.016151	-0.082783	-0.917064	-0.390051
03998														9.021663	-0.123667	-3.861198	0.024009	0.000499	0.002777	-0.842041	-0.323242	0.324463	-0.052547	-0.386816	0.920659	-0.995186	0.096661	-0.016189	-0.082730	-0.917077	-0.390033
03999														9.024683	-0.145135	-3.848509	0.021017	-0.004099	-0.001572	-0.843994	-0.329834	0.326904	-0.052527	-0.386847	0.920647	-0.995190	0.096619	-0.016182	-0.082692	-0.917068	-0.390061
04000														9.015506	-0.178830	-3.852647	0.018254	0.004665	-0.000128	-0.842041	-0.321045	0.317383	-0.052503	-0.386800	0.920668	-0.995192	0.096601	-0.016168	-0.082684	-0.917090	-0.390012
04001														9.024766	-0.146757	-3.848255	0.022580	-0.000882	0.003616	-0.842285	-0.318848	0.329102	-0.052532	-0.386796	0.920668	-0.995195	0.096565	-0.016215	-0.082632	-0.917095	-0.390011
04002														9.012551	-0.160098	-3.865082	0.016302	0.004386	-0.001130	-0.842041	-0.323242	0.322021	-0.052513	-0.386748	0.920689	-0.995194	0.096572	-0.016196	-0.082649	-0.917115	-0.389961
04003														9.042794	-0.132090	-3.872372	0.021745	0.004794	0.000469	-0.839844	-0.318848	0.319580	-0.052506	-0.386696	0.920711	-0.995198	0.096531	-0.016211	-0.082609	-0.917141	-0.389907
04004														8.983485	-0.140610	-3.823251	0.018985	0.007035	0.002247	-0.844238	-0.323242	0.322021	-0.052517	-0.386617	0.920744	-0.995197	0.096533	-0.016230	-0.082608	-0.917174	-0.389830
04005														8.996025	-0.129059	-3.805589	0.020522	0.006888	0.001843	-0.839844	-0.321045	0.324463	-0.052522	-0.386544	0.920774	-0.995199	0.096509	-0.016252	-0.082581	-0.917207	-0.389758
04006														9.031908	-0.192273	-3.820096	0.021044	0.005786	0.003685	-0.839844	-0.318848	0.326660	-0.052545	-0.386479	0.920800	-0.995201	0.096489	-0.016292	-0.082551	-0.917237	-0.389694
04007														9.074369	-0.152417	-3.810504	0.019223	0.000826	0.009048	-0.842041	-0.325439	0.324463	-0.052626	-0.386455	0.920806	-0.995198	0.096505	-0.016376	-0.082534	-0.917245	-0.389678
04008														9.098399	-0.178688	-3.809314	0.017061	0.003598	0.007174	-0.842285	-0.316895	0.322021	-0.052681	-0.386412	0.920821	-0.995195	0.096523	-0.016431	-0.082531	-0.917262	-0.389640
04009														9.095379	-0.159536	-3.821969	0.020344	0.000254	0.007239	-0.839844	-0.323242	0.322021	-0.052745	-0.386395	0.920824	-0.995194	0.096521	-0.016503	-0.082503	-0.917269	-0.389629
04010														9.092383	-0.140306	-3.834588	0.018078	0.004551	0.004928	-0.839600	-0.325439	0.326660	-0.052785	-0.386338	0.920846	-0.995192	0.096536	-0.016545	-0.082503	-0.917291	-0.389576
04011														9.080781	-0.104088	-3.818357	0.017975	-0.000448	0.004833	-0.842041	-0.325439	0.324463	-0.052825	-0.386330	0.920847	-0.995190	0.096547	-0.016585	-0.082498	-0.917294	-0.389572
04012														9.048183	-0.063225	-3.790544	0.014771	-0.002000	-0.000385	-0.840088	-0.314697	0.319580	-0.052803	-0.386346	0.920841	-0.995190	0.096555	-0.016556	-0.082516	-0.917286	-0.389586
04013														9.062818	-0.121581	-3.793939	0.015997	-0.004096	-0.001757	-0.837646	-0.321045	0.324463	-0.052781	-0.386378	0.920829	-0.995190	0.096559	-0.016527	-0.082528	-0.917272	-0.389616
04014														9.071281	-0.233381	-3.788668	0.018655	-0.004816	-0.003970	-0.846680	-0.316895	0.324219	-0.052741	-0.386417	0.920815	-0.995193	0.096531	-0.016492	-0.082514	-0.917259	-0.389651
04015														9.083357	-0.221139	-3.772154	0.015268	-0.006471	-0.004130	-0.844238	-0.323242	0.326660	-0.052697	-0.386473	0.920794	-0.995194	0.096532	-0.016439	-0.082533	-0.917235	-0.389702
04016														9.083106	-0.221505	-3.772738	0.016207	-0.007147	-0.000883	-0.839600	-0.325439	0.322021	-0.052690	-0.386532	0.920770	-0.995194	0.096536	-0.016424	-0.082539	-0.917210	-0.389761
04017														9.055805	-0.176668	-3.787226	0.013133	-0.006852	-0.000075	-0.844238	-0.323242	0.324463	-0.052687	-0.386587	0.920747	-0.995191	0.096572	-0.016400	-0.082579	-0.917183	-0.389816
04018														9.108949	-0.223568	-3.827610	0.021055	-0.007267	0.004368	-0.844482	-0.314697	0.324219	-0.052723	-0.386641	0.920722	-0.995192	0.096553	-0.016441	-0.082542	-0.917162	-0.389873
04019														9.051531	-0.208084	-3.834351	0.015011	-0.008202	0.006421	-0.842041	-0.321045	0.324463	-0.052786	-0.386703	0.920692	-0.995187	0.096598	-0.016484	-0.082562	-0.917131	-0.389940
04020														9.054283	-0.229749	-3.822167	0.016549	-0.008350	0.006017	-0.839844	-0.323242	0.324463	-0.052851	-0.386765	0.920663	-0.995183	0.096628	-0.016536	-0.082566	-0.917102	-0.390009
04021														9.063214	-0.197867	-3.818687	0.017878	-0.005449	0.004737	-0.844482	-0.318848	0.322021	-0.052895	-0.386803	0.920644	-0.995181	0.096639	-0.016575	-0.082559	-0.917085	-0.390051
04022														9.051333	-0.161216	-3.803216	0.015687	-0.006052	-0.002725	-0.844238	-0.323242	0.326660	-0.052866	-0.386852	0.920625	-0.995182	0.096645	-0.016536	-0.082577	-0.917063	-0.390097
04023														9.068863	-0.145443	-3.828612	0.014255	-0.007430	-0.001883	-0.842041	-0.323242	0.329102	-0.052845	-0.386914	0.920600	-0.995180	0.096664	-0.016500	-0.082605	-0.917035	-0.390158
04024														9.080767	-0.133222	-3.812562	0.016810	-0.013151	-0.004186	-0.844482	-0.316895	0.329102	-0.052799	-0.387037	0.920551	-0.995184	0.096636	-0.016450	-0.082592	-0.916986	-0.390275
04025														9.047147	-0.141316	-3.818716	0.011856	-0.011510	-0.009873	-0.844238	-0.321045	0.322021	-0.052702	-0.387144	0.920512	-0.995185	0.096646	-0.016331	-0.082642	-0.916940	-0.390374
04026														9.067611	-0.145531	-3.831574	0.015064	-0.009955	-0.004659	-0.842041	-0.323242	0.324463	-0.052662	-0.387232	0.920477	-0.995186	0.096647	-0.016278	-0.082658	-0.916903	-0.390458
04027														9.025530	-0.136781	-3.808600	0.011050	-0.008987	-0.007098	-0.842285	-0.318848	0.322021	-0.052591	-0.387314	0.920447	-0.995184	0.096675	-0.016181	-0.082718	-0.916865	-0.390533
04028														8.997521	-0.141328	-3.856176	0.011885	-0.008135	-0.004289	-0.837646	-0.321045	0.324463	-0.052549	-0.387383	0.920420	-0.995182	0.096712	-0.016113	-0.082774	-0.916832	-0.390598
04029														8.997207	-0.141224	-3.856913	0.006438	-0.008543	-0.005885	-0.844238	-0.321045	0.322021	-0.052489	-0.387459	0.920391	-0.995176	0.096787	-0.016010	-0.082879	-0.916792	-0.390670
04030														9.012327	-0.148997	-3.827701	0.008706	-0.006314	-0.003919	-0.842041	-0.321045	0.319580	-0.052449	-0.387511	0.920372	-0.995171	0.096852	-0.015933	-0.082966	-0.916763	-0.390720
04031														9.047531	-0.116748	-3.878112	0.001334	-0.010148	-0.000580	-0.839844	-0.323242	0.326660	-0.052444	-0.387597	0.920336	-0.995159	0.096995	-0.015858	-0.083121	-0.916712	-0.390808
04032														9.017175	-0.145548	-3.870907	0.008004	-0.005314	-0.000706	-0.842041	-0.323242	0.322021	-0.052432	-0.387637	0.920320	-0.995151	0.097079	-0.015806	-0.083217	-0.916686	-0.390848
04033														9.008359	-0.128895	-3.842646	0.005140	-0.008067	0.000981	-0.842041	-0.321045	0.319580	-0.052441	-0.387703	0.920292	-0.995141	0.097193	-0.015761	-0.083336	-0.916646	-0.390916
04034														9.016629	-0.146092	-3.872158	0.006572	-0.006691	0.000138	-0.842285	-0.318848	0.322021	-0.052444	-0.387749	0.920272	-0.995131	0.097306	-0.015711	-0.083456	-0.916614	-0.390964
04035														9.017050	-0.096459	-3.839809	0.008422	-0.004888	0.000698	-0.844238	-0.323242	0.331543	-0.052447	-0.387786	0.920256	-0.995123	0.097388	-0.015676	-0.083543	-0.916590	-0.391002
04036														9.025410	-0.113783	-3.869100	0.009959	-0.005036	0.000293	-0.844238	-0.323242	0.329102	-0.052447	-0.387826	0.920239	-0.995118	0.097449	-0.015645	-0.083609	-0.916567	-0.391044
04037														9.046876	-0.163107	-3.813726	0.011810	-0.003233	0.000854	-0.839844	-0.321045	0.326660	-0.052450	-0.387848	0.920230	-0.995113	0.097501	-0.015625	-0.083663	-0.916552	-0.391066
04038														9.032028	-0.105799	-3.810928	0.010585	-0.001134	0.002223	-0.839844	-0.318848	0.329102	-0.052461	-0.387853	0.920227	-0.995107	0.097557	-0.015612	-0.083719	-0.916544	-0.391074
04039														9.004217	-0.111056	-3.857923	0.014885	-0.003530	0.000044	-0.839844	-0.323242	0.326660	-0.052457	-0.387878	0.920217	-0.995106	0.097578	-0.015596	-0.083743	-0.916531	-0.391098
04040														9.031872	-0.106974	-3.811265	0.013555	0.000094	0.000974	-0.842041	-0.325439	0.322021	-0.052454	-0.387875	0.920218	-0.995104	0.097598	-0.015584	-0.083767	-0.916530	-0.391095
04041														9.007358	-0.132721	-3.844863	0.012119	0.005242	0.001464	-0.844238	-0.323242	0.326660	-0.052456	-0.387818	0.920242	-0.995099	0.097650	-0.015571	-0.083823	-0.916549	-0.391040
04042														9.007552	-0.133648	-3.844376	0.016972	0.005129	0.006711	-0.837646	-0.323242	0.322021	-0.052508	-0.387756	0.920265	-0.995095	0.097679	-0.015620	-0.083834	-0.916572	-0.390983
04043														9.040878	-0.126810	-3.838936	0.019034	0.003882	0.008151	-0.840088	-0.316895	0.326660	-0.052578	-0.387704	0.920283	-0.995093	0.097694	-0.015695	-0.083821	-0.916592	-0.390938
04044														9.047222	-0.169175	-3.812639	0.015959	0.004179	0.008960	-0.842041	-0.321045	0.322021	-0.052655	-0.387651	0.920301	-0.995088	0.097735	-0.015766	-0.083834	-0.916610	-0.390893
04045														9.055949	-0.187621	-3.840981	0.017810	0.005981	0.009519	-0.841797	-0.327637	0.326660	-0.052737	-0.387579	0.920327	-0.995083	0.097765	-0.015849	-0.083833	-0.916637	-0.390830
04046														9.053120	-0.168690	-3.853241	0.020676	0.008731	0.007830	-0.840088	-0.316895	0.322021	-0.052795	-0.387484	0.920363	-0.995082	0.097762	-0.015922	-0.083807	-0.916678	-0.390740
04047														9.026262	-0.125065	-3.866764	0.020083	0.001686	0.011840	-0.842041	-0.325439	0.326660	-0.052903	-0.387450	0.920372	-0.995079	0.097781	-0.016035	-0.083782	-0.916691	-0.390716
04048														9.053415	-0.171837	-3.852409	0.015020	0.004846	0.005712	-0.842285	-0.318848	0.324219	-0.052947	-0.387393	0.920393	-0.995074	0.097820	-0.016071	-0.083807	-0.916711	-0.390664
04049														9.065939	-0.160381	-3.834937	0.013796	0.006947	0.007079	-0.839844	-0.323242	0.319580	-0.053004	-0.387314	0.920423	-0.995068	0.097878	-0.016116	-0.083848	-0.916737	-0.390592
04050														9.029913	-0.149312	-3.852343	0.013901	0.005423	0.007520	-0.846436	-0.323242	0.322021	-0.053069	-0.387246	0.920448	-0.995061	0.097944	-0.016164	-0.083893	-0.916759	-0.390531
04051														9.078641	-0.150208	-3.816992	0.012468	0.004048	0.008365	-0.835449	-0.321045	0.322021	-0.053141	-0.387193	0.920466	-0.995052	0.098019	-0.016215	-0.083945	-0.916773	-0.390486
04052														9.054863	-0.126505	-3.817647	0.013484	0.004994	0.006116	-0.844482	-0.318848	0.329102	-0.053189	-0.387131	0.920489	-0.995046	0.098082	-0.016246	-0.083994	-0.916793	-0.390430
04053														9.030407	-0.152856	-3.851046	0.014007	0.003897	0.007961	-0.844482	-0.318848	0.324219	-0.053257	-0.387080	0.920507	-0.995039	0.098141	-0.016300	-0.084030	-0.916808	-0.390387
04054														9.021995	-0.137101	-3.821870	0.014008	0.003897	0.007961	-0.844238	-0.323242	0.322021	-0.053329	-0.387031	0.920523	-0.995033	0.098195	-0.016359	-0.084059	-0.916823	-0.390346
04055														9.030658	-0.155372	-3.850356	0.011036	0.002673	0.009211	-0.839844	-0.318848	0.322021	-0.053410	-0.386990	0.920536	-0.995023	0.098286	-0.016413	-0.084124	-0.916831	-0.390314
04056														9.043061	-0.144114	-3.833178	0.012993	0.002950	0.010211	-0.839844	-0.318848	0.324463	-0.053503	-0.386943	0.920550	-0.995013	0.098370	-0.016482	-0.084177	-0.916842	-0.390276
04057														9.064018	-0.149963	-3.844783	0.012993	0.002950	0.010211	-0.844482	-0.318848	0.324219	-0.053595	-0.386898	0.920564	-0.995005	0.098447	-0.016553	-0.084223	-0.916852	-0.390241
04058														9.054936	-0.184357	-3.848251	0.009709	0.006298	0.010135	-0.842041	-0.321045	0.322021	-0.053685	-0.386823	0.920590	-0.994993	0.098553	-0.016613	-0.084300	-0.916872	-0.390177
04059														9.025725	-0.164202	-3.807054	0.009814	0.004774	0.010577	-0.844238	-0.323242	0.319580	-0.053778	-0.386761	0.920610	-0.994981	0.098661	-0.016674	-0.084379	-0.916887	-0.390126
04060														9.043727	-0.149665	-3.831394	0.012085	0.007003	0.012539	-0.844238	-0.321045	0.324463	-0.053891	-0.386672	0.920641	-0.994969	0.098767	-0.016759	-0.084449	-0.916913	-0.390049
04061														9.013862	-0.179761	-3.822763	0.008590	0.006876	0.011943	-0.842041	-0.323242	0.319580	-0.053996	-0.386590	0.920670	-0.994956	0.098891	-0.016828	-0.084541	-0.916935	-0.389979
04062														9.020298	-0.127733	-3.831259	0.013206	0.006423	0.010732	-0.844482	-0.318848	0.326660	-0.054089	-0.386510	0.920698	-0.994946	0.098975	-0.016901	-0.084593	-0.916959	-0.389910
04063														9.023649	-0.149561	-3.817497	0.008384	0.009923	0.011059	-0.846436	-0.323242	0.326660	-0.054183	-0.386400	0.920738	-0.994933	0.099097	-0.016961	-0.084689	-0.916992	-0.389812
04064														9.027020	-0.171376	-3.803667	0.014641	0.007794	0.009886	-0.839844	-0.323242	0.324463	-0.054265	-0.386315	0.920769	-0.994927	0.099149	-0.017036	-0.084712	-0.917022	-0.389736
04065														9.027343	-0.172842	-3.802834	0.010341	0.010200	0.012059	-0.842041	-0.321045	0.319580	-0.054368	-0.386202	0.920811	-0.994915	0.099258	-0.017113	-0.084789	-0.917058	-0.389634
04066														9.057877	-0.145505	-3.809813	0.010418	0.011810	0.006559	-0.843994	-0.327637	0.319580	-0.054411	-0.386079	0.920859	-0.994906	0.099345	-0.017135	-0.084867	-0.917101	-0.389518
04067														9.033678	-0.171775	-3.842566	0.007864	0.011018	0.009212	-0.844238	-0.321045	0.322021	-0.054486	-0.385961	0.920904	-0.994893	0.099465	-0.017176	-0.084969	-0.917137	-0.389410
04068														9.052469	-0.201252	-3.798602	0.011359	0.011142	0.009809	-0.842041	-0.323242	0.326660	-0.054562	-0.385838	0.920952	-0.994882	0.099564	-0.017229	-0.085046	-0.917178	-0.389296
04069														9.062151	-0.169437	-3.793699	0.006326	0.011169	0.009615	-0.839844	-0.321045	0.322021	-0.054640	-0.385719	0.920997	-0.994868	0.099700	-0.017268	-0.085163	-0.917214	-0.389187
04070														9.083372	-0.174931	-3.804662	0.010208	0.008333	0.006041	-0.839844	-0.323242	0.322021	-0.054677	-0.385633	0.921031	-0.994860	0.099775	-0.017284	-0.085230	-0.917241	-0.389107
04071														9.071396	-0.188667	-3.820718	0.008386	0.009921	0.011058	-0.844482	-0.316895	0.329102	-0.054771	-0.385524	0.921071	-0.994847	0.099898	-0.017345	-0.085326	-0.917274	-0.389008
04072														9.047875	-0.165150	-3.820952	0.007267	0.010501	0.012865	-0.844482	-0.318848	0.326660	-0.054877	-0.385413	0.921111	-0.994833	0.100023	-0.017417	-0.085419	-0.917307	-0.388910
04073														9.081391	-0.158429	-3.815037	0.008490	0.008397	0.011501	-0.842041	-0.323242	0.324463	-0.054976	-0.385317	0.921145	-0.994819	0.100146	-0.017482	-0.085513	-0.917334	-0.388826
04074														9.060888	-0.155352	-3.802256	0.010242	0.011719	0.011617	-0.844238	-0.323242	0.324463	-0.055068	-0.385196	0.921190	-0.994808	0.100239	-0.017553	-0.085578	-0.917375	-0.388716
04075														9.048949	-0.169444	-3.818218	0.010448	0.008672	0.012503	-0.846436	-0.323242	0.322021	-0.055177	-0.385096	0.921225	-0.994796	0.100349	-0.017635	-0.085653	-0.917404	-0.388629
04076														9.070091	-0.175416	-3.829351	0.010132	0.006720	0.011542	-0.839844	-0.321045	0.324463	-0.055272	-0.385017	0.921253	-0.994784	0.100454	-0.017701	-0.085728	-0.917426	-0.388561
04077														9.037158	-0.185034	-3.833759	0.010551	0.007147	0.012946	-0.844238	-0.321045	0.322021	-0.055387	-0.384931	0.921282	-0.994772	0.100564	-0.017787	-0.085801	-0.917450	-0.388488
04078														9.070603	-0.178430	-3.827999	0.013108	0.007936	0.010294	-0.846924	-0.314697	0.322021	-0.055468	-0.384844	0.921313	-0.994764	0.100630	-0.017856	-0.085840	-0.917480	-0.388411
04079														9.041411	-0.158344	-3.786781	0.010654	0.005624	0.013389	-0.839844	-0.318848	0.322021	-0.055589	-0.384771	0.921336	-0.994751	0.100741	-0.017946	-0.085911	-0.917498	-0.388352
04080														9.068093	-0.161039	-3.839759	0.008494	0.008394	0.011501	-0.839844	-0.321045	0.322021	-0.055692	-0.384676	0.921370	-0.994737	0.100863	-0.018016	-0.086002	-0.917525	-0.388268
04081														9.059758	-0.145213	-3.810437	0.010938	0.004184	0.008776	-0.842285	-0.316895	0.322021	-0.055768	-0.384621	0.921388	-0.994727	0.100954	-0.018066	-0.086069	-0.917538	-0.388223
04082														9.021220	-0.157827	-3.773153	0.009615	0.007812	0.009695	-0.842285	-0.316650	0.317139	-0.055847	-0.384535	0.921420	-0.994716	0.101052	-0.018117	-0.086145	-0.917563	-0.388146
04083														9.050925	-0.180635	-3.813018	0.009197	0.007383	0.008291	-0.839844	-0.323242	0.319580	-0.055915	-0.384451	0.921450	-0.994705	0.101157	-0.018155	-0.086231	-0.917586	-0.388071
04084														9.060503	-0.148881	-3.808524	0.010135	0.006717	0.011542	-0.840088	-0.314697	0.319580	-0.056015	-0.384367	0.921479	-0.994692	0.101271	-0.018223	-0.086314	-0.917609	-0.388000
04085														9.073046	-0.137724	-3.791015	0.013213	0.006409	0.010738	-0.842285	-0.318848	0.322021	-0.056108	-0.384290	0.921506	-0.994683	0.101348	-0.018299	-0.086360	-0.917633	-0.387933
04086														9.063970	-0.172197	-3.794178	0.013113	0.007932	0.010294	-0.846680	-0.318848	0.319580	-0.056197	-0.384200	0.921538	-0.994674	0.101421	-0.018374	-0.086404	-0.917662	-0.387854
04087														9.040424	-0.148514	-3.794642	0.010637	0.008751	0.007445	-0.844238	-0.321045	0.322021	-0.056256	-0.384105	0.921574	-0.994664	0.101509	-0.018410	-0.086477	-0.917692	-0.387766
04088														9.082408	-0.158911	-3.817673	0.017932	0.004423	0.009977	-0.844238	-0.323242	0.322021	-0.056343	-0.384046	0.921593	-0.994659	0.101541	-0.018496	-0.086476	-0.917714	-0.387716
04089														9.085593	-0.180839	-3.804019	0.014653	0.007776	0.009892	-0.842041	-0.321045	0.322021	-0.056427	-0.383957	0.921625	-0.994652	0.101602	-0.018570	-0.086509	-0.917744	-0.387636
04090														9.041112	-0.152700	-3.792838	0.015457	0.005241	0.007127	-0.844482	-0.318848	0.314941	-0.056477	-0.383897	0.921647	-0.994648	0.101636	-0.018615	-0.086526	-0.917765	-0.387583
04091														9.083018	-0.163042	-3.816045	0.015558	0.003718	0.007572	-0.846680	-0.321045	0.322021	-0.056541	-0.383848	0.921664	-0.994642	0.101679	-0.018671	-0.086547	-0.917781	-0.387540
04092														9.065196	-0.180136	-3.790877	0.016780	0.001611	0.006211	-0.844238	-0.321045	0.314941	-0.056595	-0.383815	0.921674	-0.994637	0.101716	-0.018718	-0.086565	-0.917791	-0.387513
04093														9.086087	-0.185826	-3.802599	0.014924	-0.000187	0.005654	-0.849121	-0.314697	0.319580	-0.056644	-0.383803	0.921676	-0.994632	0.101758	-0.018754	-0.086590	-0.917791	-0.387507
04094														9.044402	-0.177661	-3.778772	0.014204	0.003953	0.002916	-0.837891	-0.314697	0.319580	-0.056670	-0.383749	0.921697	-0.994627	0.101813	-0.018764	-0.086640	-0.917808	-0.387457
04095														9.062408	-0.162751	-3.803419	0.016363	0.001181	0.004808	-0.837891	-0.316895	0.322021	-0.056709	-0.383726	0.921704	-0.994623	0.101838	-0.018797	-0.086652	-0.917815	-0.387437
04096														9.041581	-0.159310	-3.791447	0.015243	0.001765	0.006613	-0.844727	-0.312500	0.319580	-0.056762	-0.383700	0.921712	-0.994619	0.101869	-0.018845	-0.086663	-0.917822	-0.387418
04097														9.070960	-0.182104	-3.832038	0.015828	-0.004247	0.003336	-0.846436	-0.327637	0.317383	-0.056791	-0.383728	0.921698	-0.994616	0.101894	-0.018863	-0.086677	-0.917808	-0.387449
04098														9.052945	-0.198840	-3.807312	0.012968	-0.000462	0.004652	-0.844482	-0.316650	0.319580	-0.056831	-0.383716	0.921701	-0.994609	0.101958	-0.018880	-0.086731	-0.917805	-0.387442
04099														9.101318	-0.199580	-3.772411	0.016666	-0.003389	0.006144	-0.844482	-0.316650	0.317139	-0.056887	-0.383733	0.921690	-0.994606	0.101986	-0.018927	-0.086737	-0.917795	-0.387465
04100														9.103850	-0.177207	-3.827530	0.019645	-0.002178	0.004895	-0.848633	-0.323242	0.322021	-0.056936	-0.383736	0.921686	-0.994604	0.101991	-0.018977	-0.086721	-0.917793	-0.387473
04101														9.079899	-0.153388	-3.829078	0.017788	-0.003975	0.004339	-0.844482	-0.316895	0.324219	-0.056975	-0.383761	0.921673	-0.994603	0.102001	-0.019012	-0.086716	-0.917782	-0.387501
04102														9.056693	-0.079115	-3.798375	0.012433	-0.005891	0.003183	-0.839844	-0.321045	0.317383	-0.057000	-0.383807	0.921652	-0.994598	0.102049	-0.019015	-0.086755	-0.917757	-0.387551
04103														9.065369	-0.140728	-3.759455	0.007898	-0.003823	-0.001116	-0.846680	-0.316650	0.319580	-0.056984	-0.383836	0.921641	-0.994590	0.102129	-0.018961	-0.086848	-0.917736	-0.387579
04104														9.073723	-0.158274	-3.788591	0.010057	-0.006595	0.000778	-0.846680	-0.316650	0.319580	-0.056990	-0.383886	0.921620	-0.994584	0.102202	-0.018931	-0.086924	-0.917707	-0.387631
04105														9.109645	-0.171118	-3.770933	0.014994	-0.005110	0.000530	-0.844238	-0.321045	0.317383	-0.056992	-0.383924	0.921604	-0.994581	0.102224	-0.018920	-0.086946	-0.917689	-0.387670
04106														9.063892	-0.192539	-3.793384	0.012535	-0.007414	0.003629	-0.846924	-0.312500	0.324219	-0.057029	-0.383977	0.921580	-0.994575	0.102289	-0.018928	-0.087000	-0.917659	-0.387727
04107														9.042726	-0.189005	-3.782232	0.015432	-0.007803	0.007883	-0.844482	-0.318848	0.319580	-0.057107	-0.384033	0.921552	-0.994569	0.102335	-0.018986	-0.087016	-0.917631	-0.387791
04108														9.099096	-0.163663	-3.844616	0.020289	-0.007918	0.013138	-0.848877	-0.318848	0.322021	-0.057242	-0.384085	0.921522	-0.994564	0.102355	-0.019118	-0.086979	-0.917607	-0.387856
04109														9.113989	-0.173419	-3.815470	0.023570	-0.011276	0.013228	-0.837646	-0.318848	0.319580	-0.057375	-0.384167	0.921479	-0.994562	0.102346	-0.019257	-0.086912	-0.917573	-0.387951
04110														9.047093	-0.191546	-3.826636	0.027451	-0.014130	0.009663	-0.844238	-0.321045	0.322021	-0.057473	-0.384280	0.921426	-0.994566	0.102286	-0.019377	-0.086803	-0.917533	-0.388071
04111														9.028683	-0.209384	-3.802752	0.023992	-0.010848	0.014631	-0.844238	-0.325439	0.319580	-0.057620	-0.384357	0.921384	-0.994564	0.102279	-0.019531	-0.086731	-0.917501	-0.388161
04112														9.073826	-0.190616	-3.781736	0.017915	-0.008625	0.010734	-0.842285	-0.314697	0.324219	-0.057717	-0.384419	0.921353	-0.994559	0.102311	-0.019615	-0.086724	-0.917472	-0.388232
04113														9.079914	-0.138935	-3.791978	0.024075	-0.009253	0.009126	-0.849121	-0.314697	0.324219	-0.057808	-0.384487	0.921319	-0.994560	0.102282	-0.019719	-0.086653	-0.917447	-0.388308
04114														9.067241	-0.153084	-3.809535	0.022615	-0.007502	0.004023	-0.848877	-0.318848	0.322021	-0.057850	-0.384547	0.921291	-0.994563	0.102238	-0.019777	-0.086586	-0.917426	-0.388371
04115														9.090667	-0.179340	-3.809044	0.021378	-0.011913	0.005768	-0.839844	-0.318848	0.319580	-0.057910	-0.384643	0.921247	-0.994564	0.102222	-0.019839	-0.086540	-0.917388	-0.388472
04116														9.037067	-0.133693	-3.770915	0.022398	-0.010979	0.003516	-0.842285	-0.318848	0.322021	-0.057945	-0.384732	0.921208	-0.994566	0.102188	-0.019882	-0.086487	-0.917354	-0.388563
04117														9.045102	-0.152042	-3.800628	0.021659	-0.013365	0.001159	-0.842041	-0.323242	0.322021	-0.057960	-0.384846	0.921159	-0.994570	0.102151	-0.019902	-0.086438	-0.917311	-0.388677
04118														9.020750	-0.128170	-3.803240	0.021162	-0.015391	0.005262	-0.851074	-0.318848	0.322021	-0.058008	-0.384977	0.921101	-0.994571	0.102126	-0.019951	-0.086388	-0.917258	-0.388811
04119														9.031719	-0.167009	-3.819781	0.019221	-0.009144	0.003872	-0.844482	-0.316895	0.326660	-0.058047	-0.385049	0.921069	-0.994571	0.102122	-0.019987	-0.086365	-0.917229	-0.388887
04120														9.010513	-0.163370	-3.808758	0.017262	-0.009419	0.002872	-0.848877	-0.316895	0.326660	-0.058076	-0.385127	0.921034	-0.994570	0.102127	-0.020009	-0.086357	-0.917195	-0.388967
04121														9.051926	-0.173814	-3.833025	0.018744	-0.004648	0.007584	-0.846680	-0.316650	0.319580	-0.058148	-0.385154	0.921019	-0.994567	0.102142	-0.020077	-0.086342	-0.917182	-0.389001
04122														9.048771	-0.154731	-3.846634	0.016363	-0.005354	0.005182	-0.842285	-0.316895	0.324219	-0.058200	-0.385190	0.921000	-0.994563	0.102170	-0.020118	-0.086350	-0.917164	-0.389042
04123														9.051500	-0.176397	-3.833912	0.017726	-0.005582	0.009837	-0.842285	-0.318848	0.322021	-0.058295	-0.385223	0.920980	-0.994558	0.102203	-0.020204	-0.086344	-0.917146	-0.389085
04124														9.051266	-0.177979	-3.834392	0.019267	-0.005741	0.009435	-0.846924	-0.314697	0.317139	-0.058381	-0.385262	0.920959	-0.994556	0.102211	-0.020289	-0.086315	-0.917129	-0.389132
04125														9.027306	-0.154613	-3.836085	0.019488	-0.002265	0.009939	-0.846924	-0.312500	0.324219	-0.058474	-0.385265	0.920951	-0.994552	0.102227	-0.020382	-0.086294	-0.917126	-0.389144
04126														9.066246	-0.188835	-3.805054	0.017728	-0.005583	0.009838	-0.844482	-0.316650	0.319580	-0.058581	-0.385294	0.920933	-0.994546	0.102271	-0.020476	-0.086296	-0.917109	-0.389183
04127														9.060220	-0.149855	-3.831702	0.021350	-0.000470	0.010489	-0.846680	-0.321045	0.322021	-0.058678	-0.385280	0.920932	-0.994543	0.102273	-0.020581	-0.086257	-0.917115	-0.389178
04128														9.029873	-0.179852	-3.823560	0.020609	-0.002858	0.008134	-0.842041	-0.321045	0.317383	-0.058753	-0.385287	0.920925	-0.994541	0.102279	-0.020659	-0.086231	-0.917111	-0.389193
04129														9.054502	-0.155967	-3.790226	0.020610	-0.002859	0.008134	-0.839844	-0.318848	0.326660	-0.058828	-0.385297	0.920915	-0.994540	0.102278	-0.020740	-0.086199	-0.917107	-0.389210
04130														9.024132	-0.185825	-3.782122	0.023590	-0.001656	0.006880	-0.837646	-0.318848	0.322021	-0.058880	-0.385301	0.920911	-0.994542	0.102238	-0.020813	-0.086133	-0.917110	-0.389218
04131														9.026667	-0.164170	-3.837191	0.025453	0.000139	0.007429	-0.840088	-0.312500	0.324219	-0.058946	-0.385284	0.920913	-0.994545	0.102190	-0.020906	-0.086054	-0.917122	-0.389206
04132														9.062827	-0.178150	-3.818937	0.022795	0.000890	0.009636	-0.846680	-0.321045	0.322021	-0.059028	-0.385264	0.920917	-0.994546	0.102162	-0.021008	-0.085989	-0.917134	-0.389193
04133														9.062787	-0.180033	-3.818945	0.026498	-0.002042	0.011133	-0.840088	-0.312500	0.326660	-0.059132	-0.385264	0.920910	-0.994548	0.102119	-0.021139	-0.085898	-0.917139	-0.389202
04134														9.053188	-0.215191	-3.822723	0.027120	-0.004655	0.013436	-0.842285	-0.316895	0.324219	-0.059258	-0.385289	0.920891	-0.994550	0.102068	-0.021294	-0.085789	-0.917134	-0.389238
04135														9.040661	-0.230193	-3.839686	0.027344	-0.001179	0.013936	-0.846680	-0.316895	0.324219	-0.059390	-0.385278	0.920887	-0.994550	0.102028	-0.021454	-0.085690	-0.917143	-0.389238
04136														9.019749	-0.227896	-3.827901	0.032388	-0.001229	0.014130	-0.844482	-0.314697	0.322021	-0.059520	-0.385271	0.920882	-0.994556	0.101934	-0.021635	-0.085534	-0.917156	-0.389241
04137														9.050004	-0.202147	-3.836173	0.031171	0.000885	0.015482	-0.844482	-0.314697	0.326660	-0.059665	-0.385240	0.920886	-0.994559	0.101865	-0.021825	-0.085398	-0.917177	-0.389221
04138														9.041493	-0.187187	-3.807640	0.030529	-0.003027	0.013583	-0.846924	-0.312500	0.322021	-0.059795	-0.385249	0.920873	-0.994563	0.101787	-0.021997	-0.085258	-0.917182	-0.389241
04139														9.046858	-0.186701	-3.849713	0.031649	-0.003623	0.011779	-0.842285	-0.316895	0.324219	-0.059908	-0.385263	0.920860	-0.994568	0.101699	-0.022155	-0.085115	-0.917186	-0.389263
04140														9.056555	-0.199192	-3.778010	0.027949	-0.000692	0.010279	-0.846924	-0.314697	0.326660	-0.060003	-0.385252	0.920859	-0.994572	0.101637	-0.022286	-0.085008	-0.917197	-0.389259
04141														9.071429	-0.165269	-3.816574	0.027305	-0.004605	0.008381	-0.839844	-0.318848	0.324463	-0.060083	-0.385278	0.920842	-0.994576	0.101576	-0.022395	-0.084907	-0.917193	-0.389291
04142														9.058863	-0.179723	-3.833626	0.026785	-0.003518	0.006528	-0.842041	-0.321045	0.317383	-0.060135	-0.385302	0.920829	-0.994582	0.101497	-0.022482	-0.084799	-0.917192	-0.389318
04143														9.058678	-0.181198	-3.833993	0.022959	-0.005586	0.004984	-0.848877	-0.316895	0.326660	-0.060182	-0.385341	0.920810	-0.994584	0.101463	-0.022543	-0.084741	-0.917179	-0.389360
04144														9.040507	-0.197899	-3.809441	0.019133	-0.007653	0.003440	-0.844482	-0.318848	0.322021	-0.060209	-0.385399	0.920784	-0.994584	0.101460	-0.022568	-0.084725	-0.917155	-0.389420
04145														9.051653	-0.236878	-3.825074	0.021644	-0.001947	0.005881	-0.846680	-0.316895	0.324219	-0.060261	-0.385403	0.920779	-0.994584	0.101441	-0.022632	-0.084682	-0.917155	-0.389429
04146														9.048617	-0.218106	-3.838571	0.014985	-0.003312	0.011602	-0.844482	-0.316895	0.322021	-0.060367	-0.385414	0.920767	-0.994576	0.101504	-0.022719	-0.084706	-0.917144	-0.389451
04147														9.060937	-0.206999	-3.821966	0.015209	0.000166	0.012096	-0.842529	-0.312500	0.322021	-0.060480	-0.385393	0.920768	-0.994567	0.101569	-0.022815	-0.084729	-0.917146	-0.389442
04148														9.052474	-0.191168	-3.793459	0.015309	-0.001357	0.012549	-0.844482	-0.314697	0.326660	-0.060598	-0.385384	0.920764	-0.994558	0.101635	-0.022915	-0.084750	-0.917142	-0.389446
04149														9.052402	-0.192769	-3.793549	0.008724	-0.001141	0.012759	-0.848877	-0.318848	0.324219	-0.060718	-0.385374	0.920761	-0.994543	0.101761	-0.022992	-0.084837	-0.917132	-0.389450
04150														9.091016	-0.183589	-3.830715	0.007381	-0.004022	0.014068	-0.842529	-0.312500	0.326660	-0.060849	-0.385393	0.920744	-0.994527	0.101896	-0.023074	-0.084928	-0.917109	-0.389484
04151														9.097654	-0.175506	-3.772729	0.012551	-0.008696	0.020680	-0.842285	-0.318848	0.319580	-0.061054	-0.385444	0.920709	-0.994511	0.102018	-0.023239	-0.084971	-0.917074	-0.389557
04152														9.073609	-0.152957	-3.774897	0.016380	-0.006633	0.022222	-0.851318	-0.314697	0.319580	-0.061267	-0.385477	0.920681	-0.994498	0.102104	-0.023430	-0.084973	-0.917051	-0.389611
04153														9.043833	-0.090399	-3.803575	0.017056	-0.005820	0.030081	-0.844482	-0.316895	0.322021	-0.061564	-0.385492	0.920655	-0.994479	0.102220	-0.023699	-0.084974	-0.917032	-0.389657
04154														9.094720	-0.070818	-3.824418	0.025535	-0.007347	0.036381	-0.849121	-0.310303	0.319580	-0.061927	-0.385509	0.920624	-0.994463	0.102296	-0.024057	-0.084902	-0.917016	-0.389709
04155														9.073678	-0.070572	-3.813057	0.033199	-0.003224	0.039465	-0.844727	-0.308105	0.321777	-0.062314	-0.385490	0.920605	-0.994452	0.102301	-0.024476	-0.084744	-0.917023	-0.389726
04156														9.024939	-0.076058	-3.848269	0.038771	-0.004374	0.041512	-0.844482	-0.316895	0.324219	-0.062736	-0.385474	0.920584	-0.994443	0.102277	-0.024943	-0.084540	-0.917033	-0.389748
04157														9.038909	-0.139258	-3.850265	0.039600	-0.000413	0.038346	-0.842285	-0.314697	0.322021	-0.063110	-0.385431	0.920576	-0.994438	0.102219	-0.025376	-0.084319	-0.917057	-0.389738
04158														9.038815	-0.144249	-3.850303	0.036620	-0.001609	0.039606	-0.844727	-0.310303	0.321777	-0.063489	-0.385399	0.920563	-0.994430	0.102187	-0.025802	-0.084126	-0.917074	-0.389741
04159														9.041546	-0.169271	-3.837045	0.039877	-0.001893	0.033743	-0.842285	-0.314697	0.319580	-0.063818	-0.385375	0.920551	-0.994428	0.102109	-0.026194	-0.083902	-0.917093	-0.389744
04160														9.052559	-0.211797	-3.852352	0.046142	-0.004084	0.032589	-0.844727	-0.312500	0.324219	-0.064138	-0.385368	0.920531	-0.994431	0.101975	-0.026596	-0.083621	-0.917111	-0.389763
04161														9.031500	-0.211369	-3.840904	0.047530	-0.006162	0.026184	-0.844727	-0.310303	0.328857	-0.064395	-0.385391	0.920504	-0.994440	0.101797	-0.026948	-0.083319	-0.917121	-0.389803
04162														9.052022	-0.220392	-3.853133	0.050095	-0.005414	0.023523	-0.844482	-0.314697	0.326660	-0.064621	-0.385415	0.920478	-0.994454	0.101571	-0.027285	-0.082978	-0.917136	-0.389841
04163														9.036456	-0.216819	-3.883565	0.053351	-0.005707	0.017660	-0.846924	-0.312500	0.319580	-0.064793	-0.385441	0.920455	-0.994473	0.101307	-0.027582	-0.082617	-0.917154	-0.389875
04164														9.061115	-0.194646	-3.850781	0.054738	-0.007790	0.011257	-0.842529	-0.312500	0.322021	-0.064899	-0.385493	0.920426	-0.994497	0.101006	-0.027818	-0.082245	-0.917166	-0.389927
04165														9.055257	-0.200156	-3.809650	0.058613	-0.010693	0.007708	-0.844727	-0.310303	0.326660	-0.064977	-0.385576	0.920385	-0.994526	0.100655	-0.028043	-0.081829	-0.917169	-0.390006
04166														9.011912	-0.243841	-3.818505	0.065379	-0.010892	0.002439	-0.842529	-0.308105	0.324219	-0.064997	-0.385668	0.920345	-0.994565	0.100217	-0.028243	-0.081342	-0.917179	-0.390085
04167														9.011438	-0.246674	-3.819443	0.066005	-0.013504	0.004755	-0.844727	-0.312500	0.324219	-0.065047	-0.385779	0.920295	-0.994601	0.099787	-0.028470	-0.080850	-0.917179	-0.390188
04168														9.083057	-0.231655	-3.852451	0.071529	-0.006622	0.005910	-0.846924	-0.310303	0.321777	-0.065101	-0.385827	0.920271	-0.994642	0.099308	-0.028726	-0.080307	-0.917211	-0.390225
04169														9.036953	-0.255360	-3.874451	0.074130	-0.010848	-0.001832	-0.846924	-0.312500	0.326660	-0.065083	-0.385921	0.920233	-0.994689	0.098778	-0.028924	-0.079736	-0.917228	-0.390300
04170														9.050557	-0.315975	-3.876534	0.068466	-0.008182	-0.004341	-0.844727	-0.310303	0.321777	-0.065037	-0.385991	0.920207	-0.994733	0.098295	-0.029074	-0.079229	-0.917251	-0.390350
04171														8.996228	-0.320914	-3.869969	0.071629	-0.006975	-0.010665	-0.846924	-0.314697	0.322021	-0.064929	-0.386057	0.920187	-0.994783	0.097754	-0.029181	-0.078686	-0.917281	-0.390390
04172														8.962661	-0.330745	-3.875250	0.073800	-0.009754	-0.008746	-0.844727	-0.308105	0.326660	-0.064840	-0.386142	0.920158	-0.994832	0.097213	-0.029307	-0.078135	-0.917303	-0.390449
04173														8.990124	-0.327112	-3.829283	0.076468	-0.010543	-0.010949	-0.844971	-0.305908	0.326660	-0.064732	-0.386241	0.920124	-0.994886	0.096626	-0.029430	-0.077541	-0.917323	-0.390521
04174														9.014824	-0.303084	-3.796711	0.072675	-0.006091	-0.012927	-0.842529	-0.310303	0.326660	-0.064602	-0.386303	0.920107	-0.994937	0.096064	-0.029524	-0.076984	-0.917356	-0.390553
04175														9.040857	-0.307522	-3.850715	0.074227	-0.006270	-0.013329	-0.851563	-0.310303	0.326660	-0.064467	-0.386366	0.920090	-0.994990	0.095489	-0.029617	-0.076415	-0.917389	-0.390586
04176														9.028252	-0.322063	-3.867375	0.077030	-0.002062	-0.015523	-0.844727	-0.308105	0.333740	-0.064305	-0.386391	0.920091	-0.995046	0.094881	-0.029699	-0.075824	-0.917442	-0.390578
04177														8.999108	-0.300595	-3.827320	0.075168	-0.003861	-0.016053	-0.842529	-0.310303	0.331299	-0.064141	-0.386434	0.920084	-0.995100	0.094286	-0.029770	-0.075247	-0.917485	-0.390588
04178														9.025457	-0.347225	-3.812145	0.073829	-0.006737	-0.014721	-0.842529	-0.310303	0.331299	-0.063982	-0.386513	0.920062	-0.995155	0.093683	-0.029848	-0.074658	-0.917513	-0.390635
04179														9.030757	-0.346661	-3.854215	0.070982	-0.002920	-0.013448	-0.847168	-0.308105	0.328857	-0.063843	-0.386545	0.920058	-0.995203	0.093137	-0.029927	-0.074123	-0.917556	-0.390637
04180														9.088870	-0.314378	-3.816701	0.073156	-0.005695	-0.011522	-0.844727	-0.312500	0.329102	-0.063720	-0.386605	0.920041	-0.995253	0.092567	-0.030032	-0.073555	-0.917588	-0.390669
04181														9.055412	-0.324216	-3.821691	0.069484	-0.005817	-0.007055	-0.842529	-0.310303	0.326660	-0.063646	-0.386658	0.920024	-0.995297	0.092059	-0.030164	-0.073033	-0.917617	-0.390698
04182														9.052304	-0.306156	-3.835742	0.069163	-0.007787	-0.007985	-0.840332	-0.310303	0.322021	-0.063557	-0.386730	0.920000	-0.995340	0.091546	-0.030280	-0.072512	-0.917638	-0.390747
04183														9.051983	-0.308275	-3.836331	0.070221	-0.009942	-0.004257	-0.842529	-0.312500	0.329102	-0.063514	-0.386818	0.919966	-0.995382	0.091042	-0.030440	-0.071981	-0.917651	-0.390814
04184														9.082000	-0.282515	-3.846051	0.068258	-0.010222	-0.005250	-0.844971	-0.305908	0.326660	-0.063455	-0.386907	0.919933	-0.995422	0.090555	-0.030576	-0.071475	-0.917661	-0.390882
04185														9.063806	-0.299443	-3.821125	0.065998	-0.005946	-0.007648	-0.842529	-0.310303	0.333740	-0.063375	-0.386961	0.919916	-0.995462	0.090077	-0.030689	-0.070988	-0.917686	-0.390914
04186														9.038545	-0.327644	-3.854480	0.071790	-0.010135	-0.004656	-0.840332	-0.308105	0.328857	-0.063325	-0.387054	0.919880	-0.995504	0.089549	-0.030852	-0.070433	-0.917698	-0.390985
04187														9.029843	-0.311772	-3.827074	0.069925	-0.011934	-0.005180	-0.847168	-0.308105	0.326660	-0.063274	-0.387161	0.919839	-0.995545	0.089044	-0.031003	-0.069903	-0.917702	-0.391070
04188														9.016902	-0.327020	-3.844360	0.072598	-0.012737	-0.007379	-0.847168	-0.308105	0.326660	-0.063202	-0.387275	0.919796	-0.995588	0.088510	-0.031143	-0.069350	-0.917706	-0.391160
04189														9.013606	-0.309139	-3.858891	0.072409	-0.009710	-0.008319	-0.844727	-0.312500	0.326660	-0.063118	-0.387363	0.919764	-0.995632	0.087970	-0.031275	-0.068797	-0.917720	-0.391224
04190														8.992484	-0.306162	-3.847766	0.074391	-0.009444	-0.007325	-0.847168	-0.305908	0.333740	-0.063044	-0.387443	0.919736	-0.995675	0.087429	-0.031419	-0.068239	-0.917739	-0.391279
04191														8.973865	-0.281589	-3.892310	0.071308	-0.009103	-0.006520	-0.840332	-0.305908	0.328857	-0.062977	-0.387525	0.919706	-0.995716	0.086907	-0.031563	-0.067697	-0.917754	-0.391338
04192														8.994403	-0.288605	-3.904478	0.071184	-0.004565	-0.012993	-0.844727	-0.312500	0.326660	-0.062844	-0.387572	0.919695	-0.995762	0.086355	-0.031651	-0.067153	-0.917786	-0.391357
04193														8.973520	-0.285151	-3.892846	0.073068	-0.002781	-0.012473	-0.838379	-0.303711	0.328857	-0.062714	-0.387601	0.919692	-0.995807	0.085793	-0.031747	-0.066598	-0.917826	-0.391356
04194														8.984693	-0.325072	-3.907022	0.077518	-0.000282	-0.014624	-0.844971	-0.305908	0.331299	-0.062559	-0.387606	0.919700	-0.995856	0.085187	-0.031837	-0.066006	-0.917881	-0.391329
04195														8.987607	-0.346708	-3.893019	0.077628	-0.001808	-0.014150	-0.842529	-0.308105	0.331299	-0.062412	-0.387627	0.919701	-0.995905	0.084577	-0.031936	-0.065406	-0.917928	-0.391318
04196														9.051214	-0.312407	-3.897603	0.081752	-0.001281	-0.017223	-0.847168	-0.303711	0.335938	-0.062232	-0.387646	0.919705	-0.995958	0.083914	-0.032023	-0.064762	-0.917981	-0.391302
04197														9.056601	-0.312616	-3.939369	0.085286	-0.001192	-0.016632	-0.847168	-0.308105	0.335938	-0.062060	-0.387663	0.919710	-0.996013	0.083224	-0.032129	-0.064086	-0.918036	-0.391283
04198														9.005057	-0.214288	-3.871285	0.079901	-0.003095	-0.017738	-0.847168	-0.305908	0.328857	-0.061877	-0.387705	0.919704	-0.996065	0.082566	-0.032209	-0.063449	-0.918078	-0.391288
04199														8.987047	-0.230367	-3.845924	0.077710	-0.006866	-0.019170	-0.842529	-0.308105	0.333740	-0.061683	-0.387776	0.919688	-0.996115	0.081935	-0.032262	-0.062844	-0.918105	-0.391323
04200														9.042679	-0.299616	-3.869688	0.069318	-0.000404	-0.025519	-0.844971	-0.305908	0.331299	-0.061423	-0.387791	0.919698	-0.996164	0.081360	-0.032224	-0.062330	-0.918149	-0.391301
