// Start Time: Unknown
// Update Rate: 100.0Hz
// Filter Profile: human (46.1)
// Option Flags: AHS Disabled ICC Disabled 
// Firmware Version: 4.0.2
PacketCounter	SampleTimeFine	Year	Month	Day	Second	UTC_Nano	UTC_Year	UTC_Month	UTC_Day	UTC_Hour	UTC_Minute	UTC_Second	UTC_Valid	Acc_X	Acc_Y	Acc_Z	Gyr_X	Gyr_Y	Gyr_Z	Mag_X	Mag_Y	Mag_Z	Mat[1][1]	Mat[2][1]	Mat[3][1]	Mat[1][2]	Mat[2][2]	Mat[3][2]	Mat[1][3]	Mat[2][3]	Mat[3][3]
03583														3.030769	5.254238	-7.714005	0.005991	-0.032133	0.022713	-0.045410	-0.266113	0.897217	0.609684	0.730843	0.306845	0.519480	-0.660808	0.541732	0.598686	-0.170885	-0.782543
03584														3.019025	5.270752	-7.742988	0.002411	-0.031097	0.024220	-0.037109	-0.268066	0.897461	0.610025	0.730606	0.306732	0.519320	-0.661009	0.541640	0.598478	-0.171122	-0.782650
03585														3.003767	5.303107	-7.696360	0.001875	-0.033551	0.022387	-0.039307	-0.268066	0.901855	0.610371	0.730379	0.306584	0.519172	-0.661192	0.541558	0.598253	-0.171381	-0.782765
03586														2.999680	5.272789	-7.715122	0.001443	-0.033829	0.020282	-0.041260	-0.266113	0.897461	0.610716	0.730159	0.306421	0.519028	-0.661365	0.541485	0.598026	-0.171653	-0.782879
03587														2.983723	5.313317	-7.748940	-0.000854	-0.028899	0.016739	-0.047607	-0.266113	0.899658	0.611005	0.729977	0.306279	0.518899	-0.661502	0.541441	0.597844	-0.171896	-0.782965
03588														2.982302	5.312862	-7.749799	0.000635	-0.029083	0.014339	-0.035156	-0.261963	0.899658	0.611276	0.729812	0.306131	0.518793	-0.661626	0.541392	0.597658	-0.172121	-0.783058
03589														2.968138	5.292451	-7.715636	0.003883	-0.028224	0.010453	-0.037354	-0.263916	0.890625	0.611528	0.729673	0.305959	0.518730	-0.661726	0.541330	0.597455	-0.172328	-0.783167
03590														2.939274	5.313345	-7.714256	-0.000969	-0.028015	0.005647	-0.043457	-0.268066	0.895020	0.611761	0.729561	0.305761	0.518667	-0.661787	0.541317	0.597272	-0.172568	-0.783254
03591														2.920344	5.324465	-7.765722	0.008837	-0.023197	0.003618	-0.037109	-0.268066	0.899658	0.611947	0.729475	0.305592	0.518675	-0.661845	0.541237	0.597074	-0.172705	-0.783375
03592														2.902059	5.327367	-7.736838	0.010059	-0.024608	0.000300	-0.039307	-0.263916	0.899658	0.612126	0.729406	0.305398	0.518705	-0.661885	0.541160	0.596864	-0.172846	-0.783504
03593														2.906887	5.332558	-7.715357	0.011764	-0.020440	-0.002647	-0.037354	-0.261963	0.895020	0.612264	0.729367	0.305217	0.518770	-0.661902	0.541076	0.596667	-0.172944	-0.783632
03594														2.936180	5.286884	-7.713873	0.014852	-0.018632	-0.007724	-0.035156	-0.268066	0.899658	0.612365	0.729363	0.305024	0.518885	-0.661891	0.540979	0.596463	-0.173004	-0.783774
03595														2.938379	5.262438	-7.710085	0.014798	-0.015506	-0.009186	-0.035156	-0.261963	0.892822	0.612439	0.729375	0.304846	0.519007	-0.661866	0.540892	0.596280	-0.173046	-0.783904
03596														2.905620	5.306336	-7.714097	0.016394	-0.013515	-0.011862	-0.037109	-0.268066	0.895264	0.612495	0.729403	0.304667	0.519151	-0.661830	0.540799	0.596098	-0.173069	-0.784037
03597														2.968745	5.245364	-7.692248	0.019479	-0.011708	-0.016940	-0.039307	-0.264160	0.901855	0.612506	0.729473	0.304476	0.519349	-0.661757	0.540699	0.595914	-0.173052	-0.784181
03598														2.960268	5.238603	-7.716163	0.014732	-0.009324	-0.022016	-0.037354	-0.266113	0.897461	0.612478	0.729578	0.304280	0.519545	-0.661642	0.540650	0.595771	-0.173049	-0.784290
03599														2.988189	5.246439	-7.701918	0.014890	-0.010274	-0.020826	-0.039307	-0.270020	0.895264	0.612460	0.729677	0.304080	0.519740	-0.661532	0.540598	0.595620	-0.173052	-0.784404
03600														2.956596	5.237724	-7.718168	0.010999	-0.007336	-0.021693	-0.037354	-0.266113	0.899658	0.612424	0.729781	0.303902	0.519908	-0.661414	0.540581	0.595511	-0.173064	-0.784484
03601														2.971240	5.233805	-7.749120	0.010781	-0.011690	-0.021145	-0.037354	-0.261963	0.897461	0.612412	0.729880	0.303689	0.520079	-0.661295	0.540562	0.595373	-0.173104	-0.784580
03602														2.948890	5.260757	-7.725025	0.014505	-0.005252	-0.024668	-0.037354	-0.260010	0.899658	0.612346	0.730010	0.303510	0.520293	-0.661160	0.540521	0.595254	-0.173072	-0.784678
03603														2.944623	5.230966	-7.743389	0.009019	-0.004307	-0.022858	-0.039307	-0.263916	0.895020	0.612281	0.730132	0.303346	0.520465	-0.661025	0.540520	0.595170	-0.173070	-0.784741
03604														2.939087	5.254431	-7.749116	0.010772	-0.003265	-0.024345	-0.039307	-0.261963	0.899658	0.612201	0.730266	0.303186	0.520658	-0.660885	0.540506	0.595084	-0.173042	-0.784813
03605														2.944349	5.260225	-7.727119	0.014815	0.001276	-0.025491	-0.031006	-0.261963	0.890625	0.612090	0.730415	0.303051	0.520881	-0.660741	0.540468	0.595004	-0.172961	-0.784892
03606														2.942912	5.260043	-7.727790	0.011605	0.000342	-0.031505	-0.037354	-0.263916	0.901855	0.611957	0.730599	0.302876	0.521119	-0.660551	0.540469	0.594931	-0.172909	-0.784958
03607														2.937382	5.283394	-7.733591	0.016132	0.002038	-0.029083	-0.035156	-0.263916	0.892822	0.611822	0.730773	0.302728	0.521371	-0.660383	0.540431	0.594849	-0.172814	-0.785041
03608														2.936150	5.282816	-7.734455	0.021924	0.007623	-0.031717	-0.039307	-0.261963	0.897461	0.611644	0.730971	0.302611	0.521671	-0.660210	0.540355	0.594770	-0.172641	-0.785139
03609														2.972857	5.243509	-7.709842	0.019897	0.005350	-0.031143	-0.037354	-0.263916	0.897461	0.611478	0.731164	0.302478	0.521957	-0.660033	0.540293	0.594689	-0.172497	-0.785232
03610														2.931061	5.252008	-7.753797	0.020293	0.008673	-0.040408	-0.035156	-0.261963	0.897461	0.611243	0.731424	0.302326	0.522303	-0.659791	0.540255	0.594627	-0.172321	-0.785318
03611														2.947137	5.240183	-7.704079	0.021250	0.011410	-0.036475	-0.041504	-0.261963	0.901855	0.611014	0.731663	0.302212	0.522630	-0.659578	0.540199	0.594575	-0.172124	-0.785400
03612														2.962549	5.235865	-7.735006	0.022891	0.010275	-0.037686	-0.035400	-0.257813	0.897461	0.610782	0.731908	0.302087	0.522977	-0.659360	0.540130	0.594509	-0.171917	-0.785496
03613														2.978686	5.223860	-7.685407	0.024634	0.011316	-0.039174	-0.039307	-0.261963	0.897461	0.610539	0.732164	0.301957	0.523340	-0.659132	0.540055	0.594439	-0.171699	-0.785597
03614														3.013044	5.245594	-7.728827	0.018449	0.010742	-0.040383	-0.031006	-0.268066	0.895264	0.610291	0.732427	0.301820	0.523678	-0.658887	0.540028	0.594396	-0.171518	-0.785669
03615														2.988688	5.243020	-7.722019	0.016793	0.011873	-0.039171	-0.039307	-0.261963	0.895020	0.610044	0.732684	0.301694	0.523994	-0.658646	0.540015	0.594370	-0.171347	-0.785726
03616														3.021402	5.227885	-7.702119	0.018534	0.012914	-0.040659	-0.035156	-0.266113	0.892822	0.609791	0.732947	0.301570	0.524322	-0.658401	0.539995	0.594342	-0.171164	-0.785787
03617														2.992821	5.249069	-7.700339	0.011820	0.009877	-0.043696	-0.031250	-0.261963	0.897461	0.609532	0.733230	0.301405	0.524636	-0.658118	0.540035	0.594330	-0.171040	-0.785823
03618														2.995548	5.226005	-7.695420	0.008846	0.010247	-0.038893	-0.041504	-0.258057	0.901855	0.609306	0.733474	0.301266	0.524895	-0.657870	0.540085	0.594333	-0.170944	-0.785841
03619														3.033856	5.225283	-7.733054	0.008308	0.007785	-0.040720	-0.037354	-0.261963	0.895020	0.609075	0.733734	0.301101	0.525170	-0.657603	0.540143	0.594326	-0.170859	-0.785865
03620														3.029752	5.196486	-7.750657	0.002028	0.005028	-0.041654	-0.039307	-0.260010	0.899658	0.608850	0.733997	0.300915	0.525418	-0.657318	0.540249	0.594338	-0.170824	-0.785863
03621														3.049346	5.253387	-7.745524	-0.002239	0.004544	-0.043163	-0.037354	-0.255859	0.899658	0.608625	0.734267	0.300711	0.525645	-0.657014	0.540397	0.594367	-0.170832	-0.785840
03622														3.082769	5.187210	-7.737029	-0.010795	-0.001722	-0.044437	-0.035156	-0.263916	0.897461	0.608426	0.734537	0.300455	0.525837	-0.656687	0.540608	0.594402	-0.170930	-0.785792
03623														3.063696	5.193309	-7.706325	-0.018221	-0.006190	-0.040590	-0.039307	-0.261963	0.892822	0.608278	0.734772	0.300180	0.525953	-0.656375	0.540874	0.594450	-0.171121	-0.785714
03624														3.050318	5.213793	-7.733101	-0.030316	-0.006133	-0.042101	-0.037354	-0.266113	0.899658	0.608123	0.735014	0.299902	0.526003	-0.656034	0.541240	0.594564	-0.171391	-0.785569
03625														3.094594	5.214783	-7.665953	-0.031326	-0.014087	-0.034386	-0.037354	-0.260010	0.897461	0.608055	0.735194	0.299598	0.526004	-0.655744	0.541590	0.594633	-0.171726	-0.785443
03626														3.038736	5.207237	-7.672626	-0.035525	-0.017698	-0.034428	-0.037354	-0.257813	0.897217	0.608007	0.735367	0.299271	0.525979	-0.655449	0.541971	0.594704	-0.172112	-0.785305
03627														3.065424	5.219702	-7.655930	-0.039904	-0.020276	-0.025758	-0.033203	-0.268066	0.906494	0.608021	0.735479	0.298965	0.525877	-0.655208	0.542362	0.594780	-0.172549	-0.785152
03628														3.051796	5.240916	-7.682260	-0.041225	-0.021043	-0.022166	-0.037354	-0.257813	0.892822	0.608060	0.735565	0.298675	0.525745	-0.654993	0.542748	0.594857	-0.172996	-0.784995
03629														3.030681	5.301321	-7.638223	-0.040291	-0.023602	-0.016493	-0.039307	-0.263916	0.895020	0.608143	0.735611	0.298394	0.525584	-0.654819	0.543115	0.594915	-0.173460	-0.784849
03630														3.019041	5.269228	-7.677075	-0.042046	-0.024654	-0.015005	-0.037109	-0.268066	0.897461	0.608233	0.735647	0.298120	0.525407	-0.654653	0.543485	0.594979	-0.173931	-0.784696
03631														3.024473	5.316153	-7.716012	-0.039023	-0.028059	-0.008443	-0.033203	-0.261963	0.895264	0.608385	0.735632	0.297848	0.525205	-0.654540	0.543817	0.595003	-0.174419	-0.784570
03632														3.005272	5.322884	-7.684744	-0.035808	-0.027190	-0.012332	-0.037354	-0.266113	0.897461	0.608511	0.735642	0.297565	0.525043	-0.654407	0.544134	0.595017	-0.174877	-0.784457
03633														3.014847	5.345687	-7.719033	-0.029289	-0.028495	-0.008747	-0.035156	-0.266113	0.895264	0.608664	0.735628	0.297287	0.524899	-0.654308	0.544391	0.594987	-0.175305	-0.784384
03634														3.041980	5.356925	-7.702975	-0.032521	-0.029369	-0.004856	-0.033203	-0.265869	0.899658	0.608839	0.735586	0.297031	0.524712	-0.654235	0.544660	0.594972	-0.175755	-0.784295
03635														2.984667	5.401307	-7.697496	-0.028791	-0.031341	-0.005182	-0.035156	-0.266113	0.895264	0.609028	0.735544	0.296750	0.524550	-0.654163	0.544902	0.594922	-0.176200	-0.784233
03636														2.986205	5.380007	-7.691952	-0.024794	-0.032083	-0.004592	-0.031006	-0.265869	0.890625	0.609223	0.735494	0.296471	0.524408	-0.654105	0.545108	0.594847	-0.176621	-0.784195
03637														2.987723	5.358335	-7.686690	-0.019050	-0.031773	-0.005492	-0.033203	-0.263916	0.897461	0.609412	0.735453	0.296185	0.524306	-0.654048	0.545275	0.594743	-0.177006	-0.784187
03638														2.997197	5.379973	-7.721815	-0.018884	-0.032722	-0.004304	-0.031006	-0.268066	0.895264	0.609615	0.735399	0.295901	0.524197	-0.654003	0.545434	0.594632	-0.177394	-0.784184
03639														2.990243	5.404814	-7.726962	-0.012699	-0.032130	-0.003102	-0.029053	-0.270020	0.895264	0.609819	0.735341	0.295626	0.524119	-0.653974	0.545543	0.594492	-0.177740	-0.784212
03640														2.925656	5.358913	-7.775482	-0.010272	-0.034873	0.000160	-0.024902	-0.261719	0.897461	0.610063	0.735250	0.295347	0.524027	-0.653979	0.545625	0.594322	-0.178096	-0.784259
03641														2.933945	5.342175	-7.748260	-0.008263	-0.032592	-0.000412	-0.035156	-0.271973	0.897461	0.610284	0.735173	0.295083	0.523958	-0.653978	0.545693	0.594156	-0.178416	-0.784312
03642														2.914980	5.346221	-7.718646	-0.004948	-0.029538	-0.004578	-0.029053	-0.268066	0.897461	0.610468	0.735125	0.294820	0.523932	-0.653957	0.545743	0.593989	-0.178693	-0.784376
03643														2.921678	5.382107	-7.678987	-0.000235	-0.028770	-0.000975	-0.031006	-0.268066	0.897461	0.610663	0.735059	0.294583	0.523915	-0.653966	0.545749	0.593805	-0.178932	-0.784461
03644														2.908464	5.399433	-7.707647	0.005342	-0.027509	-0.003069	-0.027100	-0.263916	0.899902	0.610843	0.735005	0.294346	0.523940	-0.653974	0.545715	0.593598	-0.179127	-0.784573
03645														2.880721	5.366685	-7.719083	0.013104	-0.024914	-0.004550	-0.026855	-0.270020	0.897705	0.610996	0.734968	0.294119	0.524023	-0.653981	0.545627	0.593366	-0.179251	-0.784720
03646														2.958645	5.356322	-7.715222	0.008555	-0.026633	-0.006963	-0.026855	-0.267822	0.895264	0.611154	0.734939	0.293863	0.524092	-0.653967	0.545578	0.593143	-0.179421	-0.784850
03647														2.914392	5.327181	-7.696401	0.008650	-0.024456	-0.007235	-0.022949	-0.261719	0.893066	0.611290	0.734921	0.293625	0.524165	-0.653946	0.545532	0.592938	-0.179570	-0.784971
03648														2.944285	5.365012	-7.664721	0.008032	-0.023789	-0.010525	-0.031006	-0.268066	0.902100	0.611414	0.734919	0.293370	0.524252	-0.653906	0.545497	0.592733	-0.179725	-0.785090
03649														2.919907	5.399504	-7.721315	0.008719	-0.027584	-0.005774	-0.031006	-0.270020	0.899902	0.611576	0.734886	0.293116	0.524317	-0.653896	0.545447	0.592508	-0.179897	-0.785220
03650														2.926009	5.351732	-7.712736	0.016208	-0.026218	-0.008176	-0.029053	-0.270020	0.895264	0.611717	0.734870	0.292864	0.524439	-0.653884	0.545343	0.592256	-0.180006	-0.785386
03651														2.927900	5.327283	-7.709276	0.012988	-0.027095	-0.004278	-0.026855	-0.267822	0.895264	0.611884	0.734827	0.292621	0.524520	-0.653893	0.545255	0.592011	-0.180147	-0.785538
03652														2.902496	5.323651	-7.703336	0.016989	-0.027836	-0.003698	-0.024902	-0.267822	0.893066	0.612063	0.734775	0.292379	0.524614	-0.653918	0.545135	0.591743	-0.180271	-0.785712
03653														2.909829	5.312914	-7.757889	0.015514	-0.027660	-0.001291	-0.031006	-0.268066	0.899902	0.612249	0.734712	0.292147	0.524691	-0.653953	0.545018	0.591482	-0.180399	-0.785879
03654														2.926543	5.337748	-7.772112	0.017796	-0.024147	-0.000954	-0.024902	-0.267822	0.897705	0.612418	0.734649	0.291949	0.524775	-0.653999	0.544882	0.591231	-0.180488	-0.786047
03655														2.919323	5.322603	-7.715758	0.012565	-0.027306	0.003524	-0.024902	-0.265869	0.899902	0.612627	0.734555	0.291747	0.524806	-0.654064	0.544774	0.590988	-0.180633	-0.786197
03656														2.894106	5.318737	-7.709884	0.019406	-0.030581	-0.000439	-0.027100	-0.263916	0.897461	0.612842	0.734476	0.291497	0.524897	-0.654118	0.544622	0.590685	-0.180761	-0.786395
03657														2.896236	5.293866	-7.706603	0.014646	-0.028152	0.004408	-0.022949	-0.267822	0.899902	0.613060	0.734375	0.291292	0.524934	-0.654194	0.544495	0.590425	-0.180899	-0.786558
03658														2.898442	5.269133	-7.703194	0.014269	-0.031562	0.003769	-0.022949	-0.261719	0.895264	0.613300	0.734267	0.291058	0.524971	-0.654269	0.544370	0.590143	-0.181065	-0.786732
03659														2.889363	5.261853	-7.727520	0.013991	-0.032794	0.002856	-0.022949	-0.267822	0.895264	0.613538	0.734167	0.290809	0.525014	-0.654332	0.544253	0.589858	-0.181241	-0.786905
03660														2.920971	5.245987	-7.709087	0.011524	-0.035361	0.001336	-0.022949	-0.265869	0.902100	0.613790	0.734067	0.290529	0.525047	-0.654385	0.544157	0.589565	-0.181457	-0.787075
03661														2.918256	5.245291	-7.710588	0.005500	-0.036905	0.001343	-0.029053	-0.261963	0.899658	0.614044	0.733970	0.290239	0.525049	-0.654421	0.544111	0.589299	-0.181718	-0.787213
03662														2.903549	5.225176	-7.676423	-0.002510	-0.035427	0.000195	-0.020752	-0.269775	0.895508	0.614282	0.733882	0.289958	0.525014	-0.654438	0.544125	0.589083	-0.182014	-0.787307
03663														2.875989	5.275764	-7.657220	-0.000254	-0.037220	0.002265	-0.020996	-0.261719	0.899902	0.614542	0.733777	0.289670	0.524976	-0.654470	0.544122	0.588845	-0.182316	-0.787415
03664														2.859767	5.263609	-7.703435	-0.004934	-0.037916	0.008579	-0.027100	-0.261719	0.893066	0.614849	0.733623	0.289409	0.524867	-0.654547	0.544135	0.588622	-0.182660	-0.787502
03665														2.834569	5.261306	-7.696407	-0.008362	-0.029409	0.008096	-0.020752	-0.265869	0.895264	0.615094	0.733495	0.289214	0.524746	-0.654608	0.544179	0.588474	-0.182957	-0.787544
03666														2.828444	5.285313	-7.701764	-0.010454	-0.028566	0.007217	-0.024902	-0.271973	0.899902	0.615331	0.733371	0.289025	0.524616	-0.654662	0.544238	0.588342	-0.183259	-0.787572
03667														2.776239	5.304173	-7.691805	-0.008369	-0.029411	0.008097	-0.020752	-0.267822	0.895264	0.615575	0.733243	0.288830	0.524495	-0.654723	0.544282	0.588194	-0.183556	-0.787613
03668														2.820563	5.309809	-7.707421	-0.010185	-0.027337	0.008131	-0.020752	-0.269775	0.897705	0.615814	0.733111	0.288654	0.524353	-0.654786	0.544343	0.588070	-0.183857	-0.787636
03669														2.782225	5.295458	-7.745328	-0.004687	-0.022950	0.004553	-0.022949	-0.271973	0.899902	0.616002	0.733017	0.288491	0.524275	-0.654828	0.544368	0.587943	-0.184083	-0.787678
03670														2.794552	5.307956	-7.700344	-0.007966	-0.020696	0.006999	-0.018799	-0.269775	0.899902	0.616197	0.732904	0.288361	0.524152	-0.654887	0.544415	0.587848	-0.184322	-0.787693
03671														2.793214	5.308699	-7.700317	-0.014787	-0.020624	0.002538	-0.020752	-0.269775	0.899902	0.616361	0.732828	0.288206	0.524027	-0.654895	0.544525	0.587788	-0.184597	-0.787674
03672														2.789246	5.279882	-7.717910	-0.006852	-0.018979	0.002212	-0.024902	-0.263916	0.888428	0.616523	0.732749	0.288060	0.523942	-0.654921	0.544576	0.587694	-0.184817	-0.787692
03673														2.796821	5.278993	-7.614533	-0.018137	-0.015243	0.003524	-0.027100	-0.263916	0.895264	0.616660	0.732676	0.287952	0.523791	-0.654930	0.544710	0.587684	-0.185074	-0.787639
03674														2.765122	5.361950	-7.679337	-0.013476	-0.011343	0.005644	-0.024902	-0.267822	0.895264	0.616780	0.732597	0.287895	0.523657	-0.654965	0.544797	0.587679	-0.185262	-0.787599
03675														2.760322	5.386175	-7.684019	-0.009369	-0.009905	0.005937	-0.022949	-0.263916	0.902100	0.616898	0.732519	0.287843	0.523543	-0.655008	0.544855	0.587656	-0.185422	-0.787578
03676														2.782909	5.389256	-7.691510	-0.007628	-0.008853	0.004439	-0.018799	-0.267822	0.895508	0.617000	0.732451	0.287796	0.523450	-0.655045	0.544900	0.587632	-0.185557	-0.787564
03677														2.761961	5.371384	-7.759271	-0.004984	-0.007237	0.007143	-0.022949	-0.271973	0.899902	0.617109	0.732369	0.287771	0.523354	-0.655105	0.544920	0.587603	-0.185669	-0.787560
03678														2.782379	5.344429	-7.784567	0.000451	0.000281	0.002101	-0.020752	-0.269775	0.893066	0.617154	0.732328	0.287779	0.523314	-0.655143	0.544913	0.587592	-0.185696	-0.787561
03679														2.801032	5.370437	-7.797333	0.001360	-0.002357	-0.002138	-0.020996	-0.261719	0.895264	0.617185	0.732316	0.287742	0.523313	-0.655147	0.544910	0.587560	-0.185731	-0.787577
03680														2.777254	5.330340	-7.726779	0.001847	0.003233	-0.001772	-0.020752	-0.267822	0.897705	0.617190	0.732308	0.287752	0.523309	-0.655158	0.544899	0.587558	-0.185723	-0.787581
03681														2.769112	5.377170	-7.736743	0.002958	0.008155	0.001882	-0.020752	-0.265869	0.895264	0.617181	0.732289	0.287820	0.523293	-0.655194	0.544872	0.587582	-0.185670	-0.787575
03682														2.790359	5.349813	-7.762015	0.004977	0.010438	0.001298	-0.022949	-0.269775	0.897705	0.617160	0.732274	0.287904	0.523289	-0.655234	0.544828	0.587608	-0.185589	-0.787575
03683														2.772506	5.323290	-7.749317	0.006545	0.012440	-0.001388	-0.022949	-0.270020	0.902100	0.617108	0.732285	0.287987	0.523314	-0.655252	0.544782	0.587640	-0.185482	-0.787576
03684														2.780211	5.329031	-7.726618	0.004005	0.013004	-0.004366	-0.022949	-0.261719	0.895264	0.617040	0.732312	0.288063	0.523336	-0.655248	0.544765	0.587691	-0.185388	-0.787560
03685														2.806670	5.360897	-7.716563	0.007592	0.017288	-0.007635	-0.018799	-0.263672	0.897705	0.616927	0.732373	0.288151	0.523406	-0.655223	0.544729	0.587747	-0.185238	-0.787553
03686														2.832130	5.309966	-7.736888	0.010416	0.014752	-0.012183	-0.024902	-0.265869	0.902100	0.616808	0.732456	0.288194	0.523523	-0.655173	0.544676	0.587768	-0.185084	-0.787574
03687														2.831127	5.362754	-7.724216	0.005327	0.019081	-0.009701	-0.022949	-0.265869	0.897705	0.616674	0.732534	0.288285	0.523592	-0.655128	0.544663	0.587847	-0.184936	-0.787550
03688														2.836155	5.338952	-7.719143	0.011808	0.017702	-0.016055	-0.022949	-0.263916	0.895264	0.616513	0.732649	0.288334	0.523740	-0.655052	0.544613	0.587884	-0.184749	-0.787566
03689														2.829966	5.332506	-7.741782	0.008528	0.019955	-0.013609	-0.022949	-0.263916	0.897461	0.616353	0.732754	0.288410	0.523852	-0.654984	0.544587	0.587952	-0.184573	-0.787556
03690														2.819567	5.349672	-7.769331	0.008249	0.018723	-0.014522	-0.022949	-0.265869	0.899902	0.616196	0.732861	0.288475	0.523970	-0.654913	0.544560	0.588012	-0.184403	-0.787551
03691														2.845148	5.344272	-7.696250	0.006434	0.020797	-0.014487	-0.020752	-0.267822	0.897705	0.616027	0.732972	0.288553	0.524075	-0.654835	0.544552	0.588096	-0.184235	-0.787528
03692														2.799897	5.338970	-7.680729	0.008172	0.021849	-0.015984	-0.018799	-0.269775	0.897705	0.615848	0.733091	0.288632	0.524196	-0.654754	0.544533	0.588175	-0.184050	-0.787512
03693														2.805865	5.352599	-7.738535	0.010359	0.023184	-0.015379	-0.022949	-0.267822	0.893066	0.615660	0.733213	0.288724	0.524329	-0.654677	0.544497	0.588253	-0.183838	-0.787503
03694														2.832379	5.384231	-7.728608	0.015926	0.024445	-0.017492	-0.022949	-0.267822	0.893066	0.615462	0.733344	0.288814	0.524499	-0.654600	0.544426	0.588309	-0.183591	-0.787520
03695														2.858035	5.333112	-7.748950	0.012065	0.018928	-0.015137	-0.024902	-0.267822	0.897705	0.615300	0.733456	0.288874	0.524641	-0.654528	0.544375	0.588351	-0.183399	-0.787532
03696														2.892787	5.317612	-7.729182	0.019096	0.020011	-0.019658	-0.024902	-0.267822	0.902100	0.615112	0.733596	0.288921	0.524846	-0.654440	0.544284	0.588366	-0.183156	-0.787578
03697														2.867859	5.284847	-7.739307	0.009621	0.021664	-0.018394	-0.020752	-0.265869	0.893066	0.614916	0.733734	0.288985	0.524994	-0.654339	0.544263	0.588438	-0.182961	-0.787570
03698														2.900880	5.323002	-7.706559	0.007877	0.020611	-0.016898	-0.022949	-0.263916	0.899902	0.614740	0.733856	0.289050	0.525117	-0.654251	0.544250	0.588512	-0.182788	-0.787554
03699														2.911102	5.313326	-7.759204	0.004669	0.019737	-0.012993	-0.020752	-0.265869	0.897705	0.614585	0.733956	0.289127	0.525202	-0.654180	0.544252	0.588599	-0.182639	-0.787525
03700														2.872561	5.314264	-7.721018	0.004393	0.018505	-0.013906	-0.024902	-0.259766	0.895264	0.614437	0.734055	0.289190	0.525290	-0.654108	0.544255	0.588674	-0.182502	-0.787499
03701														2.846009	5.335084	-7.718191	0.006852	0.021072	-0.012387	-0.024902	-0.267822	0.893066	0.614277	0.734153	0.289281	0.525384	-0.654046	0.544238	0.588757	-0.182329	-0.787477
03702														2.812886	5.349634	-7.738037	0.007123	0.022303	-0.011473	-0.026855	-0.271973	0.897705	0.614115	0.734245	0.289392	0.525474	-0.653994	0.544214	0.588847	-0.182142	-0.787454
03703														2.843800	5.357847	-7.722966	0.014951	0.021777	-0.011511	-0.029053	-0.265869	0.897461	0.613955	0.734339	0.289494	0.525611	-0.653954	0.544130	0.588891	-0.181911	-0.787474
03704														2.872184	5.336084	-7.725754	0.018153	0.022650	-0.015413	-0.022949	-0.263916	0.895264	0.613767	0.734457	0.289590	0.525784	-0.653893	0.544036	0.588932	-0.181650	-0.787504
03705														2.888539	5.294244	-7.693327	0.018498	0.020755	-0.013036	-0.029053	-0.263916	0.897461	0.613606	0.734559	0.289675	0.525951	-0.653847	0.543929	0.588951	-0.181403	-0.787546
03706														2.869539	5.357624	-7.731539	0.017425	0.021131	-0.018427	-0.024902	-0.270020	0.897705	0.613412	0.734695	0.289739	0.526145	-0.653763	0.543843	0.588980	-0.181156	-0.787582
03707														2.901941	5.312609	-7.729192	0.013594	0.020918	-0.017815	-0.027100	-0.261719	0.893066	0.613224	0.734828	0.289800	0.526312	-0.653674	0.543789	0.589026	-0.180939	-0.787597
03708														2.898402	5.335529	-7.734356	0.012571	0.021382	-0.013306	-0.022949	-0.259766	0.902100	0.613059	0.734929	0.289894	0.526441	-0.653619	0.543730	0.589083	-0.180727	-0.787604
03709														2.860105	5.335834	-7.696561	0.011373	0.022793	-0.009987	-0.022949	-0.265869	0.897705	0.612901	0.735014	0.290012	0.526547	-0.653583	0.543671	0.589152	-0.180511	-0.787601
03710														2.836028	5.302931	-7.706482	0.011913	0.025256	-0.008161	-0.022949	-0.259766	0.899902	0.612743	0.735088	0.290158	0.526646	-0.653565	0.543596	0.589228	-0.180274	-0.787599
03711														2.856184	5.328286	-7.719128	0.015114	0.026127	-0.012061	-0.029053	-0.265869	0.897461	0.612555	0.735192	0.290292	0.526787	-0.653521	0.543513	0.589298	-0.180010	-0.787607
03712														2.891682	5.312785	-7.699003	0.013723	0.023182	-0.008189	-0.024902	-0.261719	0.897461	0.612404	0.735264	0.290426	0.526897	-0.653505	0.543426	0.589356	-0.179772	-0.787618
03713														2.869832	5.309425	-7.691493	0.012828	0.022609	-0.012392	-0.031006	-0.263916	0.897461	0.612235	0.735365	0.290529	0.527026	-0.653453	0.543362	0.589416	-0.179548	-0.787623
03714														2.887494	5.305258	-7.721641	0.011722	0.026198	-0.009350	-0.024902	-0.267822	0.897705	0.612058	0.735451	0.290684	0.527132	-0.653424	0.543294	0.589506	-0.179298	-0.787613
03715														2.923063	5.289940	-7.701334	0.011800	0.023074	-0.007884	-0.026855	-0.267822	0.895264	0.611909	0.735523	0.290816	0.527228	-0.653404	0.543225	0.589575	-0.179078	-0.787612
03716														2.917719	5.283035	-7.723971	0.012148	0.021183	-0.005505	-0.022949	-0.267822	0.902100	0.611791	0.735569	0.290948	0.527301	-0.653408	0.543150	0.589632	-0.178877	-0.787615
03717														2.921412	5.312232	-7.706234	0.002758	0.019705	-0.002797	-0.024902	-0.267822	0.899902	0.611689	0.735601	0.291081	0.527312	-0.653409	0.543138	0.589728	-0.178740	-0.787574
03718														2.950351	5.291153	-7.708241	0.005208	0.022276	-0.001276	-0.027100	-0.263916	0.902100	0.611590	0.735620	0.291241	0.527319	-0.653432	0.543103	0.589824	-0.178579	-0.787539
03719														2.901413	5.309002	-7.697951	0.003551	0.018101	0.001684	-0.027100	-0.265869	0.899902	0.611521	0.735620	0.291386	0.527308	-0.653467	0.543072	0.589905	-0.178450	-0.787507
03720														2.908268	5.322468	-7.755536	0.001812	0.017049	0.003176	-0.024902	-0.267822	0.899902	0.611469	0.735605	0.291533	0.527275	-0.653514	0.543047	0.589989	-0.178338	-0.787469
03721														2.908664	5.285140	-7.692004	-0.000546	0.016655	0.001377	-0.027100	-0.265869	0.893066	0.611407	0.735604	0.291665	0.527241	-0.653540	0.543049	0.590084	-0.178246	-0.787420
03722														2.905596	5.308636	-7.696626	-0.000815	0.015423	0.000465	-0.027100	-0.267822	0.902100	0.611355	0.735601	0.291783	0.527202	-0.653564	0.543058	0.590173	-0.178172	-0.787370
03723														2.913407	5.315119	-7.673326	-0.008385	0.011875	0.003141	-0.027100	-0.259766	0.895264	0.611330	0.735580	0.291887	0.527111	-0.653589	0.543116	0.590279	-0.178166	-0.787291
03724														2.933143	5.341779	-7.685192	-0.008479	0.009697	0.003418	-0.027100	-0.261719	0.895264	0.611323	0.735550	0.291977	0.527016	-0.653620	0.543171	0.590371	-0.178176	-0.787220
03725														2.959107	5.291891	-7.704377	-0.010311	0.006468	0.005187	-0.027100	-0.265869	0.899902	0.611341	0.735506	0.292049	0.526902	-0.653657	0.543238	0.590455	-0.178223	-0.787147
03726														2.939171	5.319446	-7.678639	-0.009518	0.004864	0.009668	-0.027100	-0.265869	0.902100	0.611396	0.735427	0.292135	0.526762	-0.653732	0.543284	0.590523	-0.178276	-0.787083
03727														2.916844	5.317512	-7.670362	-0.015795	0.002081	0.008749	-0.029053	-0.259766	0.895264	0.611458	0.735352	0.292192	0.526593	-0.653785	0.543383	0.590609	-0.178390	-0.786993
03728														2.952627	5.340952	-7.712306	-0.013708	0.001242	0.009637	-0.031250	-0.259766	0.892822	0.611531	0.735268	0.292250	0.526432	-0.653851	0.543460	0.590677	-0.178493	-0.786919
03729														2.930063	5.339064	-7.704091	-0.015018	-0.004825	0.014973	-0.029053	-0.263916	0.897461	0.611668	0.735140	0.292287	0.526229	-0.653951	0.543535	0.590716	-0.178653	-0.786853
03730														2.918559	5.319992	-7.667990	-0.020224	-0.002680	0.017705	-0.027100	-0.265869	0.899902	0.611802	0.734999	0.292361	0.525982	-0.654063	0.543639	0.590797	-0.178823	-0.786754
03731														2.899643	5.385314	-7.704957	-0.020226	-0.002681	0.017706	-0.029053	-0.270020	0.897461	0.611940	0.734857	0.292430	0.525732	-0.654174	0.543748	0.590877	-0.179001	-0.786653
03732														2.882586	5.397596	-7.754396	-0.020766	-0.005144	0.015879	-0.025146	-0.261719	0.906494	0.612087	0.734718	0.292472	0.525483	-0.654275	0.543867	0.590946	-0.179205	-0.786555
03733														2.838986	5.340210	-7.750987	-0.016404	-0.002471	0.017102	-0.029053	-0.265869	0.899902	0.612220	0.734580	0.292539	0.525260	-0.654388	0.543947	0.591007	-0.179357	-0.786475
03734														2.885864	5.346071	-7.765303	-0.012403	-0.003206	0.017686	-0.029053	-0.263916	0.895264	0.612362	0.734435	0.292604	0.525059	-0.654515	0.543988	0.591038	-0.179483	-0.786422
03735														2.908461	5.311885	-7.709206	-0.014415	-0.005490	0.018264	-0.027100	-0.261719	0.893066	0.612520	0.734284	0.292653	0.524840	-0.654640	0.544049	0.591069	-0.179645	-0.786362
03736														2.896811	5.292191	-7.673590	-0.006680	-0.008193	0.018518	-0.029053	-0.268066	0.897461	0.612695	0.734125	0.292686	0.524665	-0.654784	0.544044	0.591043	-0.179771	-0.786353
03737														2.883297	5.325573	-7.625452	-0.014149	-0.004259	0.019178	-0.022949	-0.265869	0.897705	0.612849	0.733971	0.292750	0.524442	-0.654916	0.544100	0.591080	-0.179921	-0.786290
03738														2.904689	5.299092	-7.649929	-0.015546	-0.007206	0.023047	-0.031006	-0.263916	0.892822	0.613048	0.733780	0.292812	0.524181	-0.655079	0.544156	0.591105	-0.180107	-0.786229
03739														2.924215	5.325702	-7.661869	-0.016849	-0.007975	0.026641	-0.029053	-0.268066	0.897461	0.613264	0.733569	0.292887	0.523896	-0.655261	0.544211	0.591134	-0.180303	-0.786162
03740														2.895391	5.317598	-7.676253	-0.021541	-0.008671	0.032943	-0.024902	-0.267822	0.890869	0.613515	0.733315	0.292998	0.523543	-0.655483	0.544284	0.591187	-0.180529	-0.786071
03741														2.926190	5.327195	-7.660077	-0.027390	-0.011164	0.034127	-0.029053	-0.267822	0.893066	0.613789	0.733050	0.293090	0.523149	-0.655700	0.544400	0.591251	-0.180817	-0.785956
03742														2.901154	5.386540	-7.719414	-0.026588	-0.007475	0.036870	-0.026855	-0.267822	0.897461	0.614060	0.732767	0.293227	0.522735	-0.655944	0.544504	0.591335	-0.181078	-0.785833
03743														2.861753	5.396423	-7.761004	-0.029127	-0.006916	0.033883	-0.029053	-0.265869	0.897461	0.614307	0.732511	0.293350	0.522333	-0.656156	0.544635	0.591435	-0.181347	-0.785696
03744														2.869939	5.403483	-7.737096	-0.023805	-0.006813	0.040774	-0.029053	-0.270020	0.899902	0.614591	0.732207	0.293515	0.521917	-0.656432	0.544701	0.591507	-0.181578	-0.785589
03745														2.833478	5.442449	-7.761242	-0.020126	-0.000355	0.037246	-0.022949	-0.265869	0.902100	0.614816	0.731940	0.293709	0.521547	-0.656685	0.544751	0.591599	-0.181739	-0.785482
03746														2.816838	5.416771	-7.747620	-0.018979	0.001435	0.042367	-0.026855	-0.267822	0.895264	0.615063	0.731638	0.293943	0.521150	-0.656981	0.544774	0.591693	-0.181882	-0.785378
03747														2.804820	5.367263	-7.729060	-0.014343	0.005327	0.044507	-0.027100	-0.267822	0.899902	0.615292	0.731334	0.294221	0.520769	-0.657298	0.544756	0.591790	-0.181963	-0.785286
03748														2.810066	5.396826	-7.710402	-0.015473	0.008840	0.037653	-0.029053	-0.273926	0.902100	0.615469	0.731077	0.294490	0.520421	-0.657565	0.544766	0.591912	-0.182028	-0.785179
03749														2.840159	5.375926	-7.711812	-0.013632	0.012067	0.035891	-0.029053	-0.270020	0.895264	0.615613	0.730841	0.294773	0.520097	-0.657820	0.544768	0.592047	-0.182056	-0.785071
03750														2.847081	5.352461	-7.705754	-0.012602	0.011608	0.031382	-0.029053	-0.270020	0.902100	0.615740	0.730630	0.295032	0.519799	-0.658047	0.544779	0.592177	-0.182085	-0.784966
03751														2.872756	5.355034	-7.712264	-0.011028	0.013607	0.028705	-0.026855	-0.270020	0.895264	0.615838	0.730444	0.295289	0.519535	-0.658253	0.544781	0.592307	-0.182084	-0.784868
03752														2.920150	5.322463	-7.663491	-0.007468	0.012581	0.027184	-0.029053	-0.270020	0.899902	0.615938	0.730262	0.295530	0.519296	-0.658459	0.544760	0.592412	-0.182071	-0.784792
03753														2.926686	5.298970	-7.657560	-0.013664	0.011997	0.025989	-0.029053	-0.270020	0.902100	0.616031	0.730091	0.295759	0.519033	-0.658640	0.544792	0.592547	-0.182100	-0.784684
03754														2.918109	5.316697	-7.684226	-0.010338	0.015047	0.021822	-0.029053	-0.270020	0.893066	0.616086	0.729950	0.295992	0.518812	-0.658801	0.544808	0.592682	-0.182085	-0.784585
03755														2.945936	5.349107	-7.672943	-0.014886	0.013337	0.019408	-0.035156	-0.271973	0.893066	0.616137	0.729825	0.296195	0.518582	-0.658932	0.544868	0.592831	-0.182112	-0.784466
03756														2.915798	5.311653	-7.704583	-0.016267	0.015692	0.021542	-0.029053	-0.265869	0.897461	0.616184	0.729687	0.296437	0.518324	-0.659079	0.544936	0.593008	-0.182130	-0.784328
03757														2.950349	5.350266	-7.670439	-0.014725	0.012386	0.020595	-0.029053	-0.271973	0.899902	0.616246	0.729552	0.296639	0.518088	-0.659219	0.544991	0.593150	-0.182163	-0.784213
03758														2.926745	5.318766	-7.679509	-0.014728	0.012385	0.020596	-0.029053	-0.270020	0.902100	0.616311	0.729414	0.296843	0.517849	-0.659363	0.545044	0.593290	-0.182196	-0.784099
03759														2.940858	5.339461	-7.713507	-0.016044	0.011551	0.014285	-0.027100	-0.267822	0.899902	0.616345	0.729319	0.297005	0.517644	-0.659454	0.545128	0.593434	-0.182244	-0.783979
03760														2.912868	5.331990	-7.727351	-0.021430	0.014655	0.015836	-0.031006	-0.271973	0.899902	0.616374	0.729216	0.297199	0.517396	-0.659552	0.545246	0.593620	-0.182306	-0.783824
03761														2.921223	5.338939	-7.703357	-0.014504	0.008245	0.013338	-0.024902	-0.271973	0.895264	0.616423	0.729122	0.297329	0.517206	-0.659639	0.545321	0.593735	-0.182368	-0.783722
03762														2.926795	5.316289	-7.697212	-0.018408	0.011172	0.012484	-0.035156	-0.270020	0.897461	0.616458	0.729031	0.297477	0.516990	-0.659718	0.545430	0.593887	-0.182442	-0.783590
03763														2.930725	5.346812	-7.678268	-0.016864	0.007867	0.011536	-0.033203	-0.268066	0.899658	0.616500	0.728948	0.297595	0.516796	-0.659788	0.545529	0.594012	-0.182522	-0.783477
03764														2.910393	5.292213	-7.682452	-0.016700	0.006915	0.012723	-0.029053	-0.270020	0.890625	0.616547	0.728857	0.297720	0.516599	-0.659868	0.545618	0.594134	-0.182598	-0.783367
03765														2.945461	5.278229	-7.661026	-0.022564	0.004437	0.013897	-0.029053	-0.268066	0.897461	0.616621	0.728752	0.297824	0.516357	-0.659945	0.545755	0.594267	-0.182741	-0.783232
03766														2.953086	5.285580	-7.636997	-0.023274	0.002933	0.010876	-0.026855	-0.270020	0.893066	0.616694	0.728659	0.297900	0.516127	-0.660002	0.545903	0.594392	-0.182901	-0.783100
03767														2.952542	5.339966	-7.622891	-0.022133	0.004711	0.016001	-0.037109	-0.272217	0.897461	0.616777	0.728541	0.298017	0.515875	-0.660095	0.546030	0.594524	-0.183039	-0.782967
03768														2.929440	5.347119	-7.694558	-0.028271	0.001006	0.016256	-0.029053	-0.271973	0.899902	0.616884	0.728412	0.298112	0.515581	-0.660181	0.546203	0.594668	-0.183243	-0.782810
03769														2.930621	5.348887	-7.692879	-0.029883	0.007439	0.015752	-0.032959	-0.270020	0.893066	0.616950	0.728300	0.298249	0.515284	-0.660257	0.546390	0.594857	-0.183412	-0.782627
03770														2.893798	5.389434	-7.716294	-0.028778	0.003859	0.012698	-0.031006	-0.271973	0.890625	0.617023	0.728199	0.298345	0.515011	-0.660317	0.546576	0.595018	-0.183599	-0.782461
03771														2.894847	5.391194	-7.714671	-0.026591	0.005184	0.013315	-0.026855	-0.271973	0.895264	0.617089	0.728098	0.298452	0.514748	-0.660381	0.546746	0.595177	-0.183763	-0.782302
03772														2.875430	5.419754	-7.687930	-0.022917	0.006334	0.011527	-0.029053	-0.271973	0.897705	0.617147	0.728006	0.298557	0.514512	-0.660445	0.546891	0.595321	-0.183901	-0.782160
03773														2.884735	5.374066	-7.676657	-0.022920	0.006333	0.011527	-0.029053	-0.273926	0.897705	0.617197	0.727920	0.298663	0.514282	-0.660503	0.547037	0.595467	-0.184032	-0.782017
03774														2.877726	5.422498	-7.685135	-0.019141	0.009662	0.009473	-0.031006	-0.271973	0.897461	0.617224	0.727849	0.298783	0.514084	-0.660558	0.547158	0.595612	-0.184119	-0.781887
03775														2.876385	5.394117	-7.701714	-0.015465	0.010814	0.007686	-0.035156	-0.274170	0.897461	0.617227	0.727796	0.298903	0.513922	-0.660602	0.547256	0.595747	-0.184169	-0.781772
03776														2.904782	5.374058	-7.703067	-0.016067	0.011493	0.004396	-0.031006	-0.278076	0.899902	0.617209	0.727765	0.299016	0.513776	-0.660623	0.547368	0.595892	-0.184213	-0.781651
03777														2.939724	5.359939	-7.681705	-0.014582	0.011319	0.001991	-0.026855	-0.271973	0.893066	0.617181	0.727751	0.299108	0.513654	-0.660627	0.547477	0.596026	-0.184254	-0.781539
03778														2.933960	5.355227	-7.703265	-0.016941	0.010947	0.000187	-0.031006	-0.276123	0.897705	0.617154	0.727742	0.299187	0.513522	-0.660619	0.547610	0.596168	-0.184321	-0.781415
03779														2.939922	5.415478	-7.666365	-0.017378	0.010674	-0.001918	-0.029053	-0.273926	0.904541	0.617109	0.727753	0.299253	0.513408	-0.660590	0.547753	0.596312	-0.184384	-0.781290
03780														2.921659	5.390672	-7.652877	-0.013265	0.012098	-0.001599	-0.028809	-0.278076	0.893066	0.617063	0.727759	0.299332	0.513313	-0.660574	0.547860	0.596441	-0.184414	-0.781185
03781														2.911752	5.409512	-7.679373	-0.015354	0.012951	-0.002484	-0.031006	-0.274170	0.897705	0.617002	0.727778	0.299413	0.513215	-0.660545	0.547989	0.596589	-0.184447	-0.781064
03782														2.916834	5.387010	-7.673352	-0.010971	0.015600	-0.001245	-0.032959	-0.271973	0.893066	0.616940	0.727786	0.299521	0.513126	-0.660537	0.548081	0.596730	-0.184441	-0.780957
03783														2.878317	5.389008	-7.634624	-0.013826	0.018087	-0.006605	-0.031006	-0.273926	0.893066	0.616827	0.727841	0.299619	0.513062	-0.660480	0.548210	0.596902	-0.184427	-0.780829
03784														2.875381	5.413544	-7.638397	-0.007356	0.019883	-0.004480	-0.031006	-0.276123	0.893066	0.616716	0.727883	0.299746	0.513021	-0.660453	0.548279	0.597052	-0.184356	-0.780732
03785														2.920340	5.389468	-7.670292	0.000334	0.020283	-0.005678	-0.032959	-0.271973	0.895264	0.616594	0.727936	0.299867	0.513036	-0.660429	0.548295	0.597164	-0.184233	-0.780675
03786														2.963482	5.418133	-7.689515	0.002772	0.017490	-0.012326	-0.031006	-0.276123	0.893066	0.616458	0.728025	0.299931	0.513103	-0.660365	0.548310	0.597247	-0.184115	-0.780639
03787														2.972343	5.371267	-7.679280	-0.000910	0.016336	-0.010542	-0.028809	-0.278076	0.897705	0.616336	0.728103	0.299994	0.513140	-0.660303	0.548350	0.597342	-0.184028	-0.780587
03788														2.993489	5.344903	-7.703897	-0.005460	0.014638	-0.012969	-0.032959	-0.274170	0.897461	0.616220	0.728186	0.300029	0.513156	-0.660220	0.548435	0.597448	-0.183995	-0.780514
03789														3.027643	5.330645	-7.682877	-0.009513	0.010081	-0.011841	-0.031006	-0.274170	0.895264	0.616128	0.728261	0.300036	0.513149	-0.660133	0.548545	0.597548	-0.184011	-0.780433
03790														3.029397	5.369752	-7.744659	-0.013463	0.007702	-0.010978	-0.035156	-0.276123	0.893066	0.616058	0.728323	0.300031	0.513112	-0.660048	0.548682	0.597653	-0.184071	-0.780339
03791														3.007186	5.360089	-7.655831	-0.011273	0.009027	-0.010356	-0.031006	-0.271973	0.899902	0.615980	0.728386	0.300038	0.513086	-0.659969	0.548802	0.597755	-0.184106	-0.780252
03792														2.984193	5.358951	-7.647442	-0.016878	0.007771	-0.008275	-0.037109	-0.274170	0.893066	0.615921	0.728431	0.300049	0.513013	-0.659897	0.548957	0.597879	-0.184185	-0.780139
03793														2.950488	5.375831	-7.666458	-0.020727	0.007568	-0.007678	-0.029053	-0.271973	0.895264	0.615865	0.728474	0.300060	0.512914	-0.659819	0.549142	0.598021	-0.184293	-0.780004
03794														2.886419	5.428831	-7.607284	-0.016512	0.011173	-0.007619	-0.031006	-0.274170	0.897705	0.615789	0.728522	0.300101	0.512840	-0.659753	0.549292	0.598163	-0.184344	-0.779883
03795														2.863772	5.427549	-7.598851	-0.010309	0.011747	-0.006409	-0.032959	-0.274170	0.899902	0.615714	0.728564	0.300151	0.512796	-0.659704	0.549392	0.598278	-0.184352	-0.779793
03796														2.857843	5.422522	-7.620759	-0.006260	0.016305	-0.007533	-0.028809	-0.280029	0.895508	0.615610	0.728619	0.300231	0.512783	-0.659657	0.549460	0.598397	-0.184300	-0.779715
03797														2.858741	5.423007	-7.620077	-0.000389	0.018787	-0.008691	-0.035156	-0.278076	0.893066	0.615481	0.728690	0.300323	0.512812	-0.659609	0.549490	0.598504	-0.184192	-0.779658
03798														2.933094	5.407278	-7.636770	0.000666	0.018346	-0.013199	-0.035156	-0.274170	0.895264	0.615340	0.728782	0.300388	0.512864	-0.659536	0.549530	0.598604	-0.184090	-0.779605
03799														2.950306	5.403995	-7.666592	0.008358	0.018752	-0.014390	-0.037109	-0.272217	0.895264	0.615183	0.728890	0.300448	0.512980	-0.659463	0.549508	0.598666	-0.183924	-0.779597
03800														2.967602	5.400690	-7.696395	0.000929	0.019569	-0.012279	-0.037109	-0.276123	0.897461	0.615027	0.728987	0.300533	0.513043	-0.659393	0.549535	0.598773	-0.183792	-0.779546
03801														3.044173	5.414364	-7.695295	0.003707	0.014874	-0.016557	-0.026855	-0.278076	0.902344	0.614882	0.729101	0.300552	0.513144	-0.659296	0.549556	0.598835	-0.183686	-0.779523
03802														3.029717	5.364898	-7.677882	0.001324	0.014531	-0.008461	-0.032959	-0.278076	0.890869	0.614786	0.729157	0.300612	0.513178	-0.659257	0.549571	0.598904	-0.183602	-0.779489
03803														3.026197	5.388735	-7.682333	-0.001034	0.014157	-0.010269	-0.035156	-0.274170	0.895264	0.614678	0.729229	0.300659	0.513212	-0.659197	0.549611	0.598986	-0.183532	-0.779443
03804														3.026659	5.389194	-7.681829	-0.003058	0.011877	-0.009708	-0.039063	-0.276123	0.897461	0.614588	0.729290	0.300695	0.513226	-0.659140	0.549666	0.599066	-0.183494	-0.779391
03805														3.010531	5.392890	-7.651294	-0.000369	0.010345	-0.005530	-0.037109	-0.278076	0.899902	0.614527	0.729324	0.300738	0.513236	-0.659116	0.549686	0.599121	-0.183447	-0.779360
03806														2.977171	5.408115	-7.671376	0.003478	0.010549	-0.006124	-0.032959	-0.271973	0.897461	0.614456	0.729363	0.300789	0.513271	-0.659095	0.549678	0.599163	-0.183366	-0.779346
03807														2.992557	5.366977	-7.638540	-0.002195	0.012420	-0.005498	-0.039063	-0.278320	0.897461	0.614382	0.729400	0.300849	0.513270	-0.659068	0.549712	0.599240	-0.183316	-0.779299
03808														2.946752	5.362058	-7.623581	0.003211	0.009325	-0.007044	-0.035156	-0.276123	0.897461	0.614317	0.729442	0.300882	0.513311	-0.659041	0.549707	0.599272	-0.183248	-0.779290
03809														2.970218	5.364370	-7.630944	0.007391	0.007624	-0.005267	-0.032959	-0.276123	0.899902	0.614273	0.729469	0.300906	0.513365	-0.659033	0.549666	0.599271	-0.183170	-0.779310
03810														2.977165	5.369970	-7.608213	0.003642	0.009596	-0.004939	-0.032959	-0.280273	0.897705	0.614221	0.729494	0.300949	0.513393	-0.659023	0.549651	0.599300	-0.183102	-0.779303
03811														2.964359	5.358123	-7.653706	0.003278	0.006194	-0.005596	-0.037109	-0.276123	0.890625	0.614184	0.729521	0.300960	0.513425	-0.659005	0.549643	0.599310	-0.183062	-0.779304
03812														2.977662	5.369873	-7.608087	0.001187	0.007044	-0.006484	-0.035156	-0.274170	0.895264	0.614141	0.729551	0.300977	0.513441	-0.658980	0.549657	0.599340	-0.183033	-0.779288
03813														3.040665	5.371698	-7.652728	0.001255	0.003914	-0.005035	-0.037109	-0.271973	0.888428	0.614120	0.729569	0.300973	0.513458	-0.658962	0.549664	0.599347	-0.183023	-0.779285
03814														3.006851	5.386834	-7.673063	0.003179	0.004016	-0.005331	-0.037109	-0.278076	0.899902	0.614095	0.729590	0.300974	0.513488	-0.658948	0.549653	0.599347	-0.182993	-0.779292
03815														3.030011	5.389084	-7.680585	0.008948	0.004324	-0.006219	-0.032959	-0.271973	0.897461	0.614066	0.729617	0.300967	0.513558	-0.658935	0.549603	0.599317	-0.182929	-0.779330
03816														3.036561	5.394596	-7.658071	0.003679	0.001158	-0.001777	-0.032959	-0.278076	0.893066	0.614079	0.729608	0.300963	0.513568	-0.658948	0.549577	0.599295	-0.182919	-0.779350
03817														3.011061	5.362459	-7.668715	0.001854	0.003233	-0.001745	-0.035156	-0.278076	0.893066	0.614080	0.729604	0.300972	0.513568	-0.658955	0.549569	0.599295	-0.182909	-0.779352
03818														2.977742	5.369183	-7.608542	0.000460	0.000239	-0.007798	-0.037109	-0.272217	0.899658	0.614073	0.729629	0.300927	0.513587	-0.658920	0.549593	0.599285	-0.182938	-0.779353
03819														2.932879	5.402241	-7.656510	-0.002620	-0.001600	-0.002730	-0.035156	-0.276123	0.895264	0.614097	0.729622	0.300893	0.513566	-0.658912	0.549622	0.599279	-0.182993	-0.779345
03820														2.909677	5.399930	-7.649045	-0.001993	0.003027	-0.001153	-0.035156	-0.271973	0.893066	0.614099	0.729614	0.300909	0.513541	-0.658918	0.549638	0.599298	-0.183004	-0.779328
03821														2.906490	5.415085	-7.573243	0.000460	0.005579	0.000393	-0.035156	-0.270020	0.893066	0.614097	0.729600	0.300948	0.513519	-0.658939	0.549635	0.599319	-0.182986	-0.779315
03822														2.881370	5.382991	-7.583717	0.003805	0.008643	-0.003754	-0.032959	-0.274170	0.895264	0.614052	0.729619	0.300992	0.513547	-0.658937	0.549611	0.599341	-0.182916	-0.779315
03823														2.900992	5.408915	-7.595822	0.004000	0.012997	-0.004282	-0.035156	-0.271973	0.897461	0.613981	0.729650	0.301063	0.513575	-0.658929	0.549594	0.599390	-0.182822	-0.779300
03824														2.907740	5.422919	-7.653504	0.008110	0.014428	-0.003952	-0.031006	-0.271973	0.893066	0.613904	0.729679	0.301149	0.513627	-0.658935	0.549538	0.599424	-0.182686	-0.779305
03825														2.929389	5.395567	-7.678673	0.007774	0.016332	-0.006322	-0.035156	-0.276123	0.895264	0.613803	0.729729	0.301235	0.513690	-0.658919	0.549498	0.599474	-0.182542	-0.779301
03826														2.955854	5.427030	-7.668125	0.011451	0.017490	-0.008098	-0.035156	-0.274170	0.899902	0.613690	0.729789	0.301320	0.513784	-0.658901	0.549432	0.599509	-0.182367	-0.779314
03827														2.993997	5.396090	-7.723582	0.014600	0.016198	-0.011714	-0.037109	-0.278076	0.895264	0.613561	0.729874	0.301375	0.513921	-0.658859	0.549354	0.599523	-0.182179	-0.779348
03828														3.043242	5.338937	-7.670947	0.014932	0.014293	-0.009344	-0.031006	-0.274170	0.897705	0.613456	0.729938	0.301433	0.514043	-0.658837	0.549266	0.599525	-0.182001	-0.779388
03829														3.050505	5.344013	-7.648449	0.011947	0.014633	-0.004543	-0.035156	-0.278076	0.895264	0.613374	0.729973	0.301516	0.514121	-0.658842	0.549187	0.599543	-0.181842	-0.779411
03830														2.961284	5.362781	-7.601342	0.002859	0.016567	-0.001228	-0.035156	-0.271973	0.897461	0.613304	0.729984	0.301631	0.514117	-0.658860	0.549170	0.599618	-0.181735	-0.779379
03831														2.954183	5.409454	-7.611018	0.010381	0.017931	-0.003591	-0.039307	-0.272217	0.899658	0.613207	0.730018	0.301745	0.514179	-0.658869	0.549101	0.599664	-0.181562	-0.779384
03832														2.929962	5.376853	-7.621508	0.005640	0.017216	0.002689	-0.041260	-0.272217	0.897461	0.613142	0.730012	0.301892	0.514179	-0.658917	0.549043	0.599730	-0.181415	-0.779367
03833														2.934146	5.405637	-7.603426	0.008709	0.024396	0.005812	-0.035156	-0.278076	0.895264	0.613055	0.729996	0.302108	0.514174	-0.658991	0.548959	0.599824	-0.181206	-0.779343
03834														2.936155	5.404666	-7.603341	0.012360	0.020248	0.005754	-0.035156	-0.270020	0.895264	0.612989	0.729973	0.302297	0.514189	-0.659074	0.548845	0.599878	-0.180998	-0.779350
03835														2.939833	5.441254	-7.666225	0.017528	0.021234	0.001582	-0.035156	-0.274170	0.897461	0.612899	0.729980	0.302465	0.514262	-0.659134	0.548704	0.599908	-0.180754	-0.779384
03836														3.012822	5.394367	-7.701343	0.021203	0.022390	-0.000191	-0.035156	-0.268066	0.895264	0.612794	0.729998	0.302632	0.514370	-0.659190	0.548536	0.599922	-0.180475	-0.779437
03837														3.018523	5.369284	-7.696863	0.018920	0.018885	-0.000552	-0.039307	-0.272217	0.902100	0.612707	0.730014	0.302770	0.514464	-0.659237	0.548391	0.599930	-0.180239	-0.779486
03838														3.009398	5.385423	-7.725041	0.019346	0.019158	0.001554	-0.037109	-0.278076	0.897461	0.612626	0.730018	0.302924	0.514555	-0.659301	0.548229	0.599935	-0.179988	-0.779540
03839														3.021511	5.366538	-7.697606	0.011560	0.016571	0.002992	-0.037109	-0.274170	0.895264	0.612571	0.730007	0.303063	0.514584	-0.659361	0.548130	0.599967	-0.179817	-0.779555
03840														2.979002	5.389746	-7.665525	0.015998	0.016099	0.005699	-0.039063	-0.276123	0.895264	0.612535	0.729973	0.303217	0.514617	-0.659451	0.547991	0.599975	-0.179623	-0.779593
03841														2.942736	5.336231	-7.641356	0.013197	0.020795	0.009964	-0.037109	-0.272217	0.893066	0.612491	0.729923	0.303427	0.514613	-0.659564	0.547859	0.600024	-0.179411	-0.779604
03842														2.955315	5.317410	-7.613690	0.012339	0.020245	0.005752	-0.039307	-0.272217	0.897461	0.612429	0.729897	0.303614	0.514625	-0.659648	0.547746	0.600077	-0.179208	-0.779611
03843														2.944584	5.386941	-7.628727	0.013475	0.016670	0.002700	-0.037109	-0.270020	0.892822	0.612371	0.729887	0.303752	0.514668	-0.659708	0.547634	0.600099	-0.179024	-0.779636
03844														2.970891	5.335380	-7.649032	0.013046	0.016395	0.000594	-0.041260	-0.270264	0.901855	0.612304	0.729891	0.303881	0.514721	-0.659754	0.547527	0.600122	-0.178839	-0.779661
03845														2.974450	5.363898	-7.631424	0.012618	0.016120	-0.001512	-0.037109	-0.274170	0.888428	0.612228	0.729908	0.303991	0.514784	-0.659783	0.547434	0.600145	-0.178665	-0.779683
03846														3.008846	5.356196	-7.691687	0.013423	0.014446	-0.006936	-0.032959	-0.274170	0.895264	0.612133	0.729957	0.304064	0.514885	-0.659775	0.547349	0.600156	-0.178493	-0.779714
03847														3.039139	5.363824	-7.676461	0.013493	0.011319	-0.005482	-0.035156	-0.268066	0.897461	0.612066	0.729992	0.304116	0.514977	-0.659775	0.547262	0.600145	-0.178347	-0.779755
03848														3.010297	5.354404	-7.692367	0.014273	0.014996	-0.002723	-0.037109	-0.266113	0.892822	0.611999	0.730010	0.304208	0.515055	-0.659802	0.547156	0.600146	-0.178175	-0.779794
03849														2.994402	5.356766	-7.662776	0.014416	0.008743	0.000185	-0.031006	-0.268066	0.895264	0.611976	0.730003	0.304271	0.515118	-0.659846	0.547044	0.600115	-0.178042	-0.779848
03850														2.991063	5.379567	-7.667978	0.004737	0.011359	0.000187	-0.039307	-0.274170	0.897461	0.611944	0.729997	0.304350	0.515127	-0.659876	0.546999	0.600141	-0.177954	-0.779848
03851														2.945496	5.374055	-7.653557	0.008153	0.011287	-0.002501	-0.041260	-0.270020	0.895264	0.611892	0.730012	0.304417	0.515169	-0.659889	0.546944	0.600158	-0.177844	-0.779860
03852														2.952592	5.379444	-7.630922	0.009647	0.011113	-0.004899	-0.045410	-0.274170	0.892822	0.611826	0.730043	0.304476	0.515234	-0.659889	0.546883	0.600168	-0.177721	-0.779880
03853														2.969935	5.375440	-7.661088	0.009480	0.012063	-0.006085	-0.037109	-0.272217	0.897461	0.611752	0.730083	0.304531	0.515306	-0.659878	0.546828	0.600183	-0.177596	-0.779898
03854														2.936725	5.389895	-7.681872	0.012562	0.013890	-0.011147	-0.039307	-0.274170	0.897461	0.611637	0.730159	0.304579	0.515425	-0.659837	0.546765	0.600198	-0.177434	-0.779923
03855														2.945922	5.424780	-7.641546	0.010805	0.012838	-0.009669	-0.039307	-0.270020	0.897461	0.611539	0.730224	0.304619	0.515527	-0.659802	0.546711	0.600210	-0.177296	-0.779945
03856														2.971476	5.373659	-7.661739	0.014238	0.018066	-0.014079	-0.037109	-0.266113	0.890625	0.611387	0.730326	0.304680	0.515675	-0.659744	0.546642	0.600238	-0.177094	-0.779970
03857														2.969643	5.343286	-7.679936	0.018225	0.012020	-0.011750	-0.043213	-0.272217	0.892822	0.611283	0.730403	0.304703	0.515834	-0.659707	0.546536	0.600207	-0.176912	-0.780035
03858														3.033146	5.335879	-7.644315	0.015618	0.010414	-0.014485	-0.041260	-0.272217	0.902100	0.611172	0.730496	0.304704	0.515996	-0.659647	0.546457	0.600181	-0.176753	-0.780090
03859														3.052439	5.361098	-7.657030	0.016558	0.013143	-0.010540	-0.037109	-0.274170	0.888428	0.611068	0.730567	0.304742	0.516137	-0.659616	0.546360	0.600165	-0.176574	-0.780143
03860														3.002505	5.378559	-7.648137	0.017073	0.015595	-0.008702	-0.035156	-0.270020	0.890625	0.610961	0.730627	0.304813	0.516265	-0.659602	0.546256	0.600165	-0.176377	-0.780188
03861														3.024225	5.350549	-7.673485	0.015576	0.015769	-0.006306	-0.041260	-0.270264	0.899658	0.610862	0.730675	0.304895	0.516375	-0.659600	0.546154	0.600170	-0.176185	-0.780227
03862														3.027148	5.379099	-7.656158	0.016552	0.013141	-0.010539	-0.041260	-0.272217	0.892822	0.610761	0.730744	0.304934	0.516515	-0.659572	0.546056	0.600153	-0.176006	-0.780281
03863														3.017328	5.395461	-7.684515	0.019835	0.016251	-0.004778	-0.039307	-0.270020	0.897461	0.610667	0.730782	0.305028	0.516641	-0.659589	0.545916	0.600139	-0.175783	-0.780342
03864														3.005581	5.373958	-7.650162	0.023080	0.017126	-0.008651	-0.037109	-0.272217	0.897461	0.610549	0.730846	0.305113	0.516808	-0.659585	0.545763	0.600117	-0.175530	-0.780416
03865														2.993573	5.360261	-7.696596	0.028410	0.017154	-0.011625	-0.041260	-0.272217	0.897461	0.610415	0.730932	0.305176	0.517027	-0.659567	0.545577	0.600064	-0.175244	-0.780521
03866														3.004936	5.340921	-7.669709	0.027168	0.018556	-0.008311	-0.039307	-0.274170	0.902100	0.610293	0.730994	0.305271	0.517214	-0.659574	0.545392	0.600027	-0.174958	-0.780613
03867														3.005856	5.339274	-7.670496	0.022901	0.018071	-0.009839	-0.041260	-0.272217	0.895264	0.610162	0.731069	0.305352	0.517389	-0.659558	0.545244	0.600009	-0.174701	-0.780685
03868														3.019473	5.349932	-7.625574	0.022564	0.019966	-0.012215	-0.035156	-0.270020	0.895264	0.610011	0.731160	0.305438	0.517571	-0.659529	0.545108	0.600006	-0.174436	-0.780746
03869														2.997165	5.353950	-7.699589	0.022816	0.021192	-0.011297	-0.039307	-0.272217	0.897461	0.609854	0.731250	0.305535	0.517755	-0.659502	0.544965	0.600007	-0.174157	-0.780808
03870														3.025509	5.323759	-7.621606	0.020470	0.020809	-0.013114	-0.035156	-0.268066	0.897461	0.609699	0.731345	0.305618	0.517928	-0.659464	0.544847	0.600015	-0.173904	-0.780858
03871														3.011881	5.363501	-7.655022	0.021145	0.022315	-0.010090	-0.039307	-0.270020	0.895264	0.609541	0.731429	0.305731	0.518095	-0.659443	0.544713	0.600031	-0.173628	-0.780907
03872														3.023541	5.344638	-7.627675	0.023226	0.021469	-0.009189	-0.041260	-0.270020	0.897461	0.609401	0.731500	0.305840	0.518264	-0.659438	0.544559	0.600027	-0.173350	-0.780972
03873														3.007720	5.354672	-7.678881	0.022042	0.022801	-0.015779	-0.041260	-0.268066	0.899658	0.609212	0.731622	0.305925	0.518470	-0.659377	0.544436	0.600041	-0.173064	-0.781024
03874														2.991904	5.357041	-7.649352	0.018879	0.024103	-0.012179	-0.041260	-0.266113	0.890625	0.609033	0.731721	0.306044	0.518635	-0.659340	0.544325	0.600081	-0.172787	-0.781055
03875														3.020600	5.334844	-7.651717	0.023053	0.027710	-0.012108	-0.043213	-0.270264	0.890625	0.608833	0.731828	0.306188	0.518825	-0.659307	0.544183	0.600120	-0.172459	-0.781098
03876														2.994714	5.354538	-7.650005	0.019212	0.027503	-0.011533	-0.039307	-0.266113	0.895020	0.608636	0.731928	0.306338	0.518984	-0.659275	0.544069	0.600181	-0.172156	-0.781118
03877														2.972985	5.350747	-7.643171	0.022875	0.028654	-0.013295	-0.043457	-0.270264	0.906494	0.608424	0.732044	0.306483	0.519180	-0.659234	0.543932	0.600226	-0.171822	-0.781157
03878														3.014641	5.348225	-7.680659	0.027124	0.029139	-0.011761	-0.041260	-0.268066	0.895020	0.608218	0.732148	0.306642	0.519393	-0.659214	0.543754	0.600252	-0.171453	-0.781218
03879														3.043707	5.325621	-7.683117	0.025287	0.031209	-0.011747	-0.037354	-0.261963	0.897461	0.607999	0.732258	0.306816	0.519594	-0.659188	0.543593	0.600300	-0.171085	-0.781262
03880														3.045203	5.324135	-7.683554	0.025680	0.029235	-0.019269	-0.041260	-0.264160	0.899658	0.607756	0.732411	0.306931	0.519844	-0.659111	0.543448	0.600329	-0.170728	-0.781318
03881														3.073720	5.301692	-7.686089	0.027840	0.025271	-0.016902	-0.043457	-0.264160	0.899658	0.607546	0.732544	0.307030	0.520092	-0.659051	0.543283	0.600327	-0.170386	-0.781394
03882														3.098135	5.302610	-7.693834	0.028171	0.028671	-0.016258	-0.045410	-0.268066	0.897461	0.607316	0.732679	0.307162	0.520343	-0.658998	0.543107	0.600342	-0.170008	-0.781464
03883														3.063254	5.278478	-7.652390	0.027742	0.023094	-0.016627	-0.041260	-0.266113	0.897461	0.607120	0.732807	0.307245	0.520588	-0.658940	0.542942	0.600328	-0.169683	-0.781546
03884														3.083270	5.302966	-7.665343	0.026072	0.024218	-0.015425	-0.047363	-0.268311	0.895020	0.606923	0.732927	0.307348	0.520814	-0.658890	0.542785	0.600330	-0.169358	-0.781615
03885														3.117890	5.286637	-7.645135	0.026150	0.021098	-0.013960	-0.039307	-0.258057	0.899658	0.606753	0.733033	0.307430	0.521034	-0.658849	0.542624	0.600312	-0.169057	-0.781694
03886														3.061943	5.297114	-7.659779	0.030227	0.022532	-0.013612	-0.041260	-0.268066	0.897461	0.606574	0.733140	0.307529	0.521280	-0.658819	0.542425	0.600279	-0.168712	-0.781793
03887														3.058490	5.318933	-7.665840	0.025385	0.017408	-0.016708	-0.045410	-0.264160	0.899658	0.606411	0.733258	0.307568	0.521512	-0.658756	0.542279	0.600242	-0.168444	-0.781880
03888														3.090727	5.272845	-7.663407	0.030300	0.019413	-0.012146	-0.041504	-0.261963	0.899658	0.606261	0.733348	0.307650	0.521744	-0.658737	0.542078	0.600192	-0.168127	-0.781986
03889														3.064037	5.291953	-7.662508	0.029120	0.020728	-0.018741	-0.043457	-0.266113	0.904053	0.606068	0.733485	0.307704	0.522010	-0.658666	0.541909	0.600156	-0.167809	-0.782083
03890														3.062510	5.260682	-7.680974	0.027285	0.017507	-0.016990	-0.043457	-0.260010	0.897217	0.605905	0.733603	0.307743	0.522257	-0.658606	0.541744	0.600106	-0.167525	-0.782182
03891														3.075349	5.271504	-7.636323	0.027029	0.016276	-0.017905	-0.043457	-0.268066	0.895020	0.605743	0.733727	0.307766	0.522505	-0.658537	0.541588	0.600053	-0.167254	-0.782280
03892														3.092513	5.266423	-7.667101	0.026524	0.013815	-0.019736	-0.047607	-0.262207	0.897217	0.605587	0.733857	0.307763	0.522761	-0.658456	0.541440	0.599988	-0.167003	-0.782384
03893														3.121993	5.273876	-7.652270	0.024436	0.014653	-0.020643	-0.047607	-0.260010	0.899414	0.605420	0.733996	0.307759	0.523010	-0.658362	0.541313	0.599939	-0.166761	-0.782473
03894														3.115748	5.266718	-7.675717	0.016695	0.012065	-0.019235	-0.043457	-0.258057	0.904053	0.605267	0.734126	0.307752	0.523212	-0.658265	0.541236	0.599917	-0.166573	-0.782529
03895														3.077720	5.304190	-7.702482	0.015036	0.007902	-0.016292	-0.045410	-0.266113	0.897217	0.605164	0.734225	0.307718	0.523379	-0.658187	0.541169	0.599876	-0.166443	-0.782589
03896														3.058444	5.277431	-7.690769	0.016778	0.008948	-0.017766	-0.045410	-0.261963	0.892822	0.605044	0.734336	0.307689	0.523569	-0.658103	0.541088	0.599831	-0.166286	-0.782657
03897														3.058121	5.276753	-7.691363	0.014782	0.006670	-0.017206	-0.043457	-0.261963	0.895020	0.604943	0.734439	0.307641	0.523739	-0.658018	0.541026	0.599784	-0.166166	-0.782718
03898														3.082726	5.308317	-7.681630	0.019602	0.004234	-0.021990	-0.043457	-0.261963	0.897217	0.604831	0.734569	0.307553	0.523968	-0.657908	0.540938	0.599698	-0.166028	-0.782813
03899														3.086034	5.284095	-7.677253	0.017606	0.001956	-0.021430	-0.047363	-0.268066	0.892822	0.604736	0.734692	0.307445	0.524181	-0.657797	0.540867	0.599607	-0.165925	-0.782905
03900														3.106175	5.256498	-7.702590	0.013279	-0.000715	-0.022693	-0.045410	-0.261963	0.895020	0.604650	0.734817	0.307316	0.524371	-0.657672	0.540835	0.599528	-0.165868	-0.782978
03901														3.094099	5.266122	-7.650674	0.011363	-0.000821	-0.022411	-0.041504	-0.258057	0.895020	0.604566	0.734941	0.307182	0.524552	-0.657543	0.540816	0.599453	-0.165826	-0.783044
03902														3.107721	5.232823	-7.698547	0.006789	-0.004723	-0.024588	-0.045410	-0.262207	0.897217	0.604494	0.735073	0.307008	0.524722	-0.657393	0.540834	0.599378	-0.165838	-0.783099
03903														3.067811	5.263629	-7.644783	0.007887	-0.008201	-0.017713	-0.043457	-0.260010	0.897217	0.604480	0.735155	0.306841	0.524854	-0.657292	0.540828	0.599276	-0.165872	-0.783169
03904														3.057915	5.227922	-7.685576	0.002631	-0.008339	-0.024659	-0.041260	-0.261963	0.897217	0.604427	0.735282	0.306640	0.524999	-0.657134	0.540879	0.599203	-0.165936	-0.783212
03905														3.098163	5.257084	-7.705417	0.003311	-0.012106	-0.019890	-0.039307	-0.260010	0.897217	0.604424	0.735372	0.306431	0.525117	-0.657010	0.540915	0.599102	-0.166030	-0.783269
03906														3.072755	5.255091	-7.698808	-0.003176	-0.016117	-0.021783	-0.043457	-0.260010	0.901855	0.604441	0.735463	0.306178	0.525207	-0.656866	0.541004	0.599006	-0.166197	-0.783307
03907														3.042873	5.276794	-7.697380	-0.003007	-0.017059	-0.020591	-0.039307	-0.261963	0.899658	0.604464	0.735549	0.305927	0.525292	-0.656726	0.541091	0.598909	-0.166369	-0.783345
03908														3.032002	5.324644	-7.708203	-0.006415	-0.016982	-0.017918	-0.043457	-0.264160	0.901855	0.604502	0.735615	0.305690	0.525342	-0.656603	0.541191	0.598826	-0.166559	-0.783368
03909														3.061435	5.281357	-7.704968	-0.004582	-0.019049	-0.017924	-0.039307	-0.263916	0.899658	0.604552	0.735680	0.305437	0.525401	-0.656481	0.541282	0.598725	-0.166756	-0.783404
03910														3.029535	5.273520	-7.720917	-0.007263	-0.017563	-0.022130	-0.041504	-0.261963	0.906494	0.604573	0.735772	0.305175	0.525467	-0.656326	0.541406	0.598645	-0.166960	-0.783421
03911														3.062709	5.289724	-7.682715	-0.004415	-0.019992	-0.016732	-0.043457	-0.264160	0.899658	0.604634	0.735827	0.304921	0.525520	-0.656213	0.541492	0.598538	-0.167163	-0.783460
03912														3.060108	5.290934	-7.682918	-0.010027	-0.018251	-0.026057	-0.039307	-0.261963	0.897461	0.604634	0.735946	0.304633	0.525597	-0.656023	0.541647	0.598469	-0.167384	-0.783465
03913														3.040312	5.295848	-7.653277	-0.005515	-0.021804	-0.021858	-0.037354	-0.260010	0.901855	0.604679	0.736032	0.304337	0.525674	-0.655870	0.541757	0.598356	-0.167607	-0.783503
03914														3.054127	5.293706	-7.683389	-0.012681	-0.027343	-0.026767	-0.041260	-0.264160	0.901855	0.604735	0.736137	0.303969	0.525740	-0.655672	0.541933	0.598242	-0.167917	-0.783525
03915														3.004265	5.290109	-7.669361	-0.012436	-0.026113	-0.025852	-0.041260	-0.268066	0.897461	0.604785	0.736241	0.303618	0.525800	-0.655478	0.542110	0.598139	-0.168218	-0.783539
03916														2.998494	5.345146	-7.657115	-0.016441	-0.025389	-0.026473	-0.039307	-0.261963	0.895020	0.604828	0.736348	0.303273	0.525835	-0.655275	0.542321	0.598064	-0.168540	-0.783526
03917														2.971854	5.344387	-7.650007	-0.012873	-0.026405	-0.027957	-0.039307	-0.261963	0.901855	0.604868	0.736466	0.302907	0.525905	-0.655065	0.542507	0.597962	-0.168845	-0.783539
03918														3.004217	5.368623	-7.692427	-0.008629	-0.025900	-0.026422	-0.041260	-0.264160	0.899658	0.604914	0.736572	0.302556	0.525993	-0.654875	0.542651	0.597838	-0.169115	-0.783575
03919														2.960917	5.378414	-7.736267	-0.011958	-0.023656	-0.024022	-0.039307	-0.268066	0.892822	0.604958	0.736668	0.302234	0.526045	-0.654695	0.542818	0.597748	-0.169394	-0.783584
03920														2.940719	5.383447	-7.706590	-0.004126	-0.018983	-0.035618	-0.043457	-0.260010	0.899658	0.604915	0.736845	0.301890	0.526208	-0.654446	0.542960	0.597648	-0.169588	-0.783618
03921														2.937323	5.384624	-7.707063	0.000043	-0.020649	-0.033807	-0.043457	-0.260010	0.899658	0.604889	0.737010	0.301537	0.526391	-0.654214	0.543063	0.597513	-0.169766	-0.783682
03922														2.938298	5.362200	-7.702410	0.001247	-0.016774	-0.038857	-0.041260	-0.266113	0.897461	0.604802	0.737221	0.301198	0.526622	-0.653945	0.543163	0.597398	-0.169888	-0.783744
03923														2.945685	5.345802	-7.675110	0.006096	-0.016917	-0.034027	-0.033203	-0.268066	0.899658	0.604753	0.737393	0.300874	0.526842	-0.653721	0.543218	0.597253	-0.170000	-0.783830
03924														2.953424	5.328993	-7.647976	0.008933	-0.014053	-0.030380	-0.037354	-0.261963	0.897461	0.604711	0.737542	0.300594	0.527050	-0.653534	0.543242	0.597112	-0.170077	-0.783921
03925														2.921355	5.320052	-7.664551	0.012828	-0.011659	-0.031230	-0.037354	-0.266113	0.899658	0.604645	0.737705	0.300326	0.527294	-0.653342	0.543236	0.596963	-0.170105	-0.784027
03926														2.971357	5.331864	-7.657064	0.010659	-0.013004	-0.031857	-0.039307	-0.268066	0.897461	0.604586	0.737867	0.300046	0.527527	-0.653145	0.543247	0.596818	-0.170157	-0.784127
03927														2.990156	5.305246	-7.682477	0.005245	-0.009932	-0.030360	-0.035156	-0.263916	0.899658	0.604514	0.738028	0.299797	0.527720	-0.652947	0.543298	0.596720	-0.170223	-0.784187
03928														2.966495	5.332558	-7.658467	0.006203	-0.012465	-0.024681	-0.041260	-0.264160	0.895020	0.604490	0.738143	0.299561	0.527879	-0.652796	0.543325	0.596603	-0.170303	-0.784259
03929														2.949265	5.373538	-7.692245	0.002524	-0.008341	-0.024661	-0.037354	-0.266113	0.897461	0.604439	0.738268	0.299355	0.528021	-0.652635	0.543380	0.596529	-0.170374	-0.784299
03930														2.930311	5.384590	-7.743620	0.010702	-0.010718	-0.022236	-0.035156	-0.266113	0.895264	0.604412	0.738373	0.299150	0.528194	-0.652508	0.543364	0.596403	-0.170407	-0.784388
03931														2.928297	5.384486	-7.744455	0.010164	-0.007896	-0.025810	-0.039307	-0.263916	0.897461	0.604352	0.738507	0.298941	0.528389	-0.652352	0.543362	0.596291	-0.170425	-0.784469
03932														2.915726	5.401522	-7.773223	0.010843	-0.006372	-0.022791	-0.037354	-0.266113	0.899658	0.604300	0.738621	0.298764	0.528565	-0.652222	0.543347	0.596188	-0.170428	-0.784547
03933														2.880467	5.408164	-7.714202	0.013758	-0.001328	-0.019425	-0.039307	-0.260010	0.901855	0.604235	0.738724	0.298642	0.528743	-0.652119	0.543298	0.596097	-0.170375	-0.784628
03934														2.845554	5.421615	-7.736037	0.023634	0.002641	-0.020226	-0.037354	-0.261963	0.897461	0.604137	0.738841	0.298551	0.528986	-0.652028	0.543170	0.595980	-0.170220	-0.784751
03935														2.843058	5.390245	-7.754924	0.032385	0.004909	-0.016253	-0.039307	-0.260010	0.897217	0.604051	0.738934	0.298495	0.529256	-0.651980	0.542965	0.595828	-0.169999	-0.784914
03936														2.885458	5.326950	-7.725182	0.036093	0.008247	-0.018297	-0.037354	-0.263916	0.897461	0.603929	0.739048	0.298459	0.529563	-0.651923	0.542733	0.595678	-0.169719	-0.785088
03937														2.919018	5.310316	-7.706064	0.039548	0.010350	-0.021255	-0.033203	-0.259766	0.892822	0.603784	0.739183	0.298418	0.529905	-0.651850	0.542487	0.595521	-0.169412	-0.785274
03938														2.946205	5.287363	-7.709721	0.040229	0.011751	-0.028135	-0.035156	-0.263916	0.899658	0.603597	0.739362	0.298353	0.530290	-0.651731	0.542254	0.595368	-0.169090	-0.785459
03939														2.968728	5.287998	-7.718616	0.038059	0.010402	-0.028759	-0.035156	-0.261963	0.895020	0.603412	0.739546	0.298272	0.530668	-0.651599	0.542042	0.595218	-0.168791	-0.785636
03940														2.972483	5.262392	-7.715094	0.040319	0.008635	-0.026661	-0.039307	-0.263916	0.897461	0.603253	0.739709	0.298189	0.531042	-0.651491	0.541806	0.595046	-0.168495	-0.785830
03941														3.007548	5.275742	-7.678510	0.036812	0.011814	-0.025455	-0.033203	-0.261963	0.904297	0.603077	0.739873	0.298137	0.531393	-0.651382	0.541593	0.594912	-0.168194	-0.785997
03942														2.973136	5.287990	-7.700957	0.033098	0.008474	-0.023407	-0.041260	-0.266113	0.897461	0.602933	0.740016	0.298073	0.531706	-0.651284	0.541404	0.594778	-0.167943	-0.786152
03943														2.943279	5.276603	-7.718206	0.041223	0.011395	-0.022730	-0.035156	-0.261963	0.901855	0.602774	0.740162	0.298033	0.532066	-0.651202	0.541148	0.594617	-0.167617	-0.786343
03944														2.887822	5.315374	-7.716258	0.034694	0.012769	-0.016464	-0.037354	-0.263916	0.901855	0.602639	0.740268	0.298043	0.532344	-0.651158	0.540928	0.594505	-0.167323	-0.786490
03945														2.896872	5.266233	-7.707159	0.039980	0.012810	-0.019427	-0.037354	-0.260010	0.899658	0.602489	0.740395	0.298032	0.532677	-0.651098	0.540672	0.594359	-0.166994	-0.786670
03946														2.887889	5.310487	-7.719597	0.040040	0.014980	-0.019709	-0.037354	-0.255859	0.899658	0.602325	0.740525	0.298040	0.533008	-0.651039	0.540417	0.594228	-0.166649	-0.786842
03947														2.911167	5.310661	-7.728526	0.043845	0.015205	-0.020281	-0.035400	-0.257813	0.901855	0.602155	0.740661	0.298044	0.533369	-0.650978	0.540134	0.594076	-0.166277	-0.787036
03948														2.921957	5.297874	-7.782976	0.043405	0.014904	-0.022384	-0.039307	-0.261963	0.899658	0.601976	0.740810	0.298035	0.533744	-0.650904	0.539854	0.593922	-0.165905	-0.787231
03949														2.920217	5.258593	-7.721379	0.039582	0.014674	-0.021812	-0.035400	-0.255859	0.895020	0.601801	0.740956	0.298026	0.534088	-0.650825	0.539608	0.593789	-0.165565	-0.787403
03950														2.972752	5.268356	-7.714551	0.037849	0.013622	-0.020331	-0.035400	-0.255859	0.901855	0.601641	0.741088	0.298021	0.534411	-0.650756	0.539371	0.593660	-0.165243	-0.787567
03951														2.901310	5.227604	-7.712182	0.039547	0.007216	-0.019761	-0.037354	-0.258057	0.904053	0.601522	0.741207	0.297964	0.534743	-0.650692	0.539120	0.593482	-0.164958	-0.787761
03952														2.918050	5.214943	-7.662923	0.031187	0.010657	-0.013501	-0.035156	-0.260010	0.899658	0.601417	0.741291	0.297970	0.534989	-0.650663	0.538911	0.593368	-0.164699	-0.787902
03953														2.936870	5.239178	-7.676759	0.029706	0.010843	-0.011112	-0.041504	-0.253906	0.901855	0.601322	0.741360	0.297989	0.535210	-0.650646	0.538711	0.593264	-0.164452	-0.788031
03954														2.900389	5.304465	-7.687171	0.028408	0.010095	-0.007527	-0.035156	-0.260010	0.899658	0.601249	0.741405	0.298026	0.535403	-0.650656	0.538508	0.593164	-0.164213	-0.788156
03955														2.956129	5.261419	-7.691798	0.030062	0.008970	-0.008721	-0.037354	-0.253906	0.901855	0.601178	0.741455	0.298042	0.535612	-0.650658	0.538298	0.593047	-0.163978	-0.788293
03956														2.944015	5.246543	-7.738391	0.025885	0.010611	-0.010541	-0.039307	-0.255859	0.904053	0.601090	0.741518	0.298064	0.535805	-0.650642	0.538124	0.592962	-0.163757	-0.788404
03957														2.939733	5.268182	-7.744917	0.026064	0.009676	-0.009345	-0.037354	-0.251953	0.901855	0.601012	0.741573	0.298083	0.535994	-0.650633	0.537948	0.592870	-0.163542	-0.788517
03958														2.963172	5.269353	-7.753077	0.024156	0.009561	-0.009060	-0.039551	-0.255859	0.906494	0.600932	0.741629	0.298107	0.536175	-0.650623	0.537779	0.592787	-0.163331	-0.788623
03959														2.974077	5.250848	-7.725969	0.025992	0.007502	-0.009057	-0.033203	-0.255859	0.906494	0.600868	0.741679	0.298110	0.536362	-0.650615	0.537602	0.592683	-0.163133	-0.788742
03960														2.946395	5.269826	-7.725351	0.021571	0.007905	-0.011787	-0.037354	-0.253906	0.904053	0.600789	0.741746	0.298103	0.536540	-0.650582	0.537463	0.592602	-0.162958	-0.788839
03961														2.946376	5.268457	-7.726291	0.021933	0.006036	-0.009395	-0.037354	-0.260010	0.901855	0.600732	0.741796	0.298093	0.536705	-0.650566	0.537319	0.592511	-0.162797	-0.788941
03962														2.910834	5.251040	-7.765599	0.023834	0.006149	-0.009680	-0.039551	-0.249756	0.899414	0.600674	0.741846	0.298086	0.536880	-0.650553	0.537160	0.592411	-0.162622	-0.789052
03963														2.961719	5.231821	-7.775405	0.023831	0.006149	-0.009680	-0.041504	-0.255859	0.901855	0.600615	0.741898	0.298075	0.537058	-0.650537	0.537002	0.592310	-0.162448	-0.789164
03964														2.915198	5.224766	-7.762149	0.019347	0.004377	-0.012122	-0.037354	-0.253906	0.899658	0.600546	0.741966	0.298045	0.537229	-0.650495	0.536881	0.592225	-0.162303	-0.789257
03965														2.990527	5.238726	-7.761710	0.019281	0.002205	-0.011833	-0.041504	-0.258057	0.895020	0.600498	0.742026	0.297992	0.537392	-0.650456	0.536765	0.592125	-0.162188	-0.789356
03966														2.966755	5.234777	-7.755563	0.018787	-0.000272	-0.013647	-0.039551	-0.253906	0.901855	0.600454	0.742092	0.297916	0.537560	-0.650404	0.536660	0.592017	-0.162091	-0.789457
03967														2.947411	5.207601	-7.743875	0.016882	-0.000387	-0.013363	-0.037354	-0.251953	0.899414	0.600413	0.742158	0.297835	0.537719	-0.650349	0.536567	0.591914	-0.162011	-0.789550
03968														2.948344	5.236575	-7.727581	0.017126	0.000852	-0.012456	-0.035400	-0.251953	0.906494	0.600368	0.742220	0.297772	0.537875	-0.650303	0.536466	0.591818	-0.161913	-0.789643
03969														2.947833	5.235779	-7.728315	0.011847	0.000815	-0.009498	-0.035156	-0.260010	0.901855	0.600341	0.742262	0.297721	0.537981	-0.650269	0.536402	0.591749	-0.161856	-0.789706
03970														2.964342	5.231351	-7.758797	0.013685	-0.001243	-0.009493	-0.039307	-0.258057	0.904053	0.600332	0.742297	0.297653	0.538093	-0.650242	0.536322	0.591657	-0.161807	-0.789785
03971														2.934355	5.214730	-7.694347	0.012028	-0.000119	-0.008302	-0.041504	-0.258057	0.897217	0.600317	0.742330	0.297600	0.538192	-0.650217	0.536253	0.591581	-0.161756	-0.789852
03972														2.899935	5.227982	-7.716074	0.011598	-0.000425	-0.010405	-0.035400	-0.255859	0.904053	0.600291	0.742374	0.297542	0.538295	-0.650177	0.536197	0.591514	-0.161709	-0.789912
03973														2.918107	5.253588	-7.729285	0.011723	0.003917	-0.010985	-0.037354	-0.255859	0.901855	0.600238	0.742431	0.297507	0.538409	-0.650132	0.536138	0.591465	-0.161630	-0.789965
03974														2.905243	5.233420	-7.694486	0.011413	0.000507	-0.011602	-0.035400	-0.253906	0.906494	0.600205	0.742483	0.297444	0.538520	-0.650085	0.536084	0.591397	-0.161581	-0.790026
03975														2.945086	5.231966	-7.731944	0.010615	0.002245	-0.006204	-0.039307	-0.253906	0.892822	0.600187	0.742506	0.297421	0.538598	-0.650073	0.536020	0.591344	-0.161522	-0.790078
03976														2.957178	5.251093	-7.767741	0.009143	0.002256	-0.013711	-0.039307	-0.253906	0.897217	0.600130	0.742577	0.297362	0.538711	-0.650006	0.535988	0.591299	-0.161470	-0.790122
03977														2.944114	5.231211	-7.732826	0.007545	-0.001895	-0.010742	-0.039307	-0.258057	0.899658	0.600112	0.742622	0.297283	0.538798	-0.649955	0.535961	0.591237	-0.161462	-0.790170
03978														2.954371	5.214358	-7.704865	0.002578	0.001479	-0.007170	-0.035400	-0.257813	0.901855	0.600093	0.742649	0.297256	0.538829	-0.649926	0.535966	0.591229	-0.161459	-0.790177
03979														2.927961	5.271123	-7.767008	0.004049	0.001286	-0.009557	-0.037354	-0.251953	0.899414	0.600063	0.742693	0.297208	0.538889	-0.649878	0.535963	0.591205	-0.161450	-0.790197
03980														2.910595	5.274772	-7.737388	0.004478	0.001594	-0.007454	-0.039551	-0.253906	0.901855	0.600045	0.742719	0.297176	0.538934	-0.649851	0.535952	0.591182	-0.161437	-0.790217
03981														2.908924	5.244733	-7.754643	0.003068	0.003958	-0.005357	-0.043457	-0.256104	0.899414	0.600022	0.742740	0.297171	0.538963	-0.649833	0.535944	0.591179	-0.161414	-0.790223
03982														2.919640	5.228099	-7.726362	0.000369	0.005399	-0.009570	-0.037354	-0.251953	0.899414	0.599961	0.742792	0.297166	0.539000	-0.649780	0.535971	0.591208	-0.161389	-0.790207
03983														2.891968	5.248378	-7.724873	0.009262	0.006781	-0.004397	-0.035400	-0.257813	0.899658	0.599926	0.742810	0.297189	0.539059	-0.649779	0.535912	0.591188	-0.161305	-0.790239
03984														2.893798	5.277771	-7.708001	0.007544	0.005734	-0.002916	-0.037354	-0.251953	0.906250	0.599909	0.742814	0.297214	0.539095	-0.649791	0.535863	0.591174	-0.161243	-0.790262
03985														2.888164	5.270547	-7.730914	0.009997	0.010500	-0.001678	-0.037354	-0.253906	0.901855	0.599867	0.742821	0.297281	0.539142	-0.649811	0.535790	0.591173	-0.161126	-0.790287
03986														2.870024	5.243711	-7.718515	0.009015	0.005541	-0.005303	-0.035400	-0.253906	0.901855	0.599834	0.742843	0.297293	0.539207	-0.649806	0.535732	0.591147	-0.161048	-0.790322
03987														2.912072	5.272159	-7.738614	0.011222	0.009067	-0.004972	-0.037354	-0.255859	0.899658	0.599783	0.742869	0.297331	0.539281	-0.649804	0.535659	0.591131	-0.160934	-0.790357
03988														2.915655	5.218077	-7.750535	0.013367	0.010421	-0.004350	-0.035400	-0.249756	0.904053	0.599731	0.742890	0.297385	0.539359	-0.649814	0.535568	0.591113	-0.160800	-0.790398
03989														2.917772	5.247278	-7.733697	0.009380	0.011122	-0.004979	-0.039551	-0.249756	0.901855	0.599667	0.742919	0.297439	0.539423	-0.649809	0.535510	0.591119	-0.160683	-0.790417
03990														2.941692	5.249463	-7.740991	0.011769	0.013717	-0.003451	-0.039551	-0.249756	0.901855	0.599594	0.742944	0.297525	0.539497	-0.649820	0.535421	0.591126	-0.160522	-0.790445
03991														2.913064	5.239374	-7.756711	0.007049	0.010698	-0.006799	-0.037354	-0.249756	0.901855	0.599523	0.742985	0.297566	0.539558	-0.649799	0.535387	0.591142	-0.160423	-0.790453
03992														2.952112	5.201831	-7.730056	0.007661	0.010075	-0.003498	-0.037354	-0.253906	0.906494	0.599470	0.743005	0.297624	0.539608	-0.649803	0.535331	0.591151	-0.160315	-0.790468
03993														2.925007	5.221988	-7.728465	0.002019	0.011901	-0.002940	-0.039551	-0.251953	0.901855	0.599413	0.743022	0.297695	0.539616	-0.649801	0.535325	0.591201	-0.160240	-0.790446
03994														2.919652	5.215144	-7.751004	0.005819	0.012131	-0.003506	-0.037354	-0.255859	0.904053	0.599350	0.743043	0.297769	0.539650	-0.649803	0.535288	0.591234	-0.160134	-0.790443
03995														2.924936	5.191407	-7.745451	0.007659	0.010075	-0.003497	-0.037354	-0.247803	0.901855	0.599301	0.743061	0.297823	0.539695	-0.649807	0.535239	0.591243	-0.160036	-0.790456
03996														2.976591	5.173506	-7.754020	0.003917	0.012016	-0.003223	-0.037354	-0.253906	0.901855	0.599242	0.743079	0.297896	0.539716	-0.649808	0.535215	0.591283	-0.159944	-0.790445
03997														2.943382	5.187090	-7.775081	0.003857	0.009845	-0.002931	-0.037354	-0.249756	0.899414	0.599197	0.743093	0.297951	0.539735	-0.649810	0.535194	0.591311	-0.159872	-0.790438
03998														2.973222	5.196632	-7.759256	-0.002089	0.008259	-0.002988	-0.035400	-0.253906	0.906494	0.599163	0.743103	0.297996	0.539718	-0.649804	0.535218	0.591361	-0.159849	-0.790405
03999														2.969019	5.220058	-7.764613	0.001652	0.006319	-0.003262	-0.037354	-0.253906	0.897217	0.599137	0.743114	0.298021	0.539726	-0.649800	0.535216	0.591380	-0.159818	-0.790397
04000														2.963093	5.207055	-7.706455	0.000790	0.005890	0.002426	-0.035400	-0.251953	0.908691	0.599149	0.743083	0.298074	0.539690	-0.649840	0.535203	0.591401	-0.159799	-0.790385
04001														2.970150	5.220103	-7.764150	-0.005219	0.009577	0.000586	-0.043457	-0.251953	0.901855	0.599125	0.743073	0.298146	0.539634	-0.649853	0.535244	0.591477	-0.159788	-0.790331
04002														2.930486	5.221261	-7.726880	-0.003255	0.004420	0.002085	-0.039551	-0.249756	0.901855	0.599136	0.743047	0.298190	0.539583	-0.649882	0.535260	0.591511	-0.159795	-0.790303
04003														2.931005	5.221360	-7.726617	-0.001111	0.005775	0.002708	-0.037354	-0.245850	0.897217	0.599146	0.743018	0.298243	0.539539	-0.649917	0.535262	0.591542	-0.159786	-0.790282
04004														2.936134	5.198121	-7.720780	-0.001722	0.006397	-0.000593	-0.037354	-0.253906	0.899658	0.599130	0.743013	0.298286	0.539518	-0.649928	0.535270	0.591577	-0.159766	-0.790260
04005														2.930427	5.191747	-7.743147	-0.005399	0.003065	0.001461	-0.043701	-0.245850	0.901611	0.599149	0.742988	0.298311	0.539455	-0.649948	0.535309	0.591615	-0.159805	-0.790224
04006														2.972661	5.221118	-7.762506	-0.003196	0.006591	0.001793	-0.041504	-0.251953	0.899414	0.599143	0.742968	0.298373	0.539409	-0.649973	0.535325	0.591664	-0.159791	-0.790191
04007														2.972984	5.221702	-7.761990	-0.013305	-0.000806	0.001976	-0.037354	-0.258057	0.904053	0.599187	0.742933	0.298370	0.539297	-0.649984	0.535425	0.591721	-0.159910	-0.790124
04008														2.962237	5.239059	-7.789830	-0.005578	-0.003447	0.002336	-0.039307	-0.258057	0.897217	0.599250	0.742890	0.298353	0.539224	-0.650012	0.535464	0.591724	-0.159997	-0.790104
04009														2.969994	5.276377	-7.749456	-0.016378	0.002682	0.005259	-0.039551	-0.253906	0.901855	0.599291	0.742839	0.298395	0.539074	-0.650042	0.535579	0.591818	-0.160111	-0.790010
04010														2.873423	5.295511	-7.806600	-0.014294	0.001866	0.006175	-0.039307	-0.255859	0.901855	0.599344	0.742778	0.298441	0.538924	-0.650085	0.535677	0.591902	-0.160217	-0.789926
04011														2.863196	5.312893	-7.834231	-0.006874	0.003258	0.003848	-0.037354	-0.253906	0.904053	0.599374	0.742738	0.298481	0.538839	-0.650120	0.535721	0.591948	-0.160265	-0.789881
04012														2.844898	5.280705	-7.740404	-0.004854	0.007714	0.002984	-0.039551	-0.251953	0.901855	0.599376	0.742708	0.298554	0.538767	-0.650154	0.535751	0.592012	-0.160265	-0.789833
04013														2.870332	5.313566	-7.730042	0.002567	0.009106	0.000658	-0.039551	-0.251953	0.901855	0.599355	0.742697	0.298622	0.538757	-0.650180	0.535730	0.592043	-0.160207	-0.789822
04014														2.881754	5.296489	-7.701759	0.007903	0.011314	-0.002583	-0.041504	-0.253906	0.901855	0.599300	0.742712	0.298695	0.538800	-0.650192	0.535672	0.592059	-0.160091	-0.789833
04015														2.939534	5.284697	-7.687933	0.015873	0.009912	-0.001316	-0.039551	-0.253906	0.904053	0.599263	0.742716	0.298759	0.538880	-0.650225	0.535551	0.592023	-0.159941	-0.789891
04016														2.938824	5.253733	-7.705453	0.011946	0.012783	-0.002241	-0.035400	-0.253906	0.901855	0.599201	0.742730	0.298847	0.538943	-0.650246	0.535463	0.592029	-0.159788	-0.789917
04017														3.015343	5.268191	-7.704154	0.008877	0.008828	0.003113	-0.039551	-0.253906	0.899414	0.599195	0.742703	0.298927	0.538955	-0.650300	0.535385	0.592024	-0.159692	-0.789941
04018														2.982261	5.281476	-7.725428	0.002748	0.008175	0.001854	-0.035400	-0.251953	0.904053	0.599190	0.742680	0.298995	0.538935	-0.650339	0.535358	0.592048	-0.159642	-0.789933
04019														3.006387	5.283988	-7.732372	0.002308	0.008054	0.009645	-0.039551	-0.251953	0.904053	0.599223	0.742609	0.299104	0.538869	-0.650432	0.535312	0.592074	-0.159594	-0.789923
04020														2.992272	5.323667	-7.766019	-0.001494	0.007824	0.010208	-0.033203	-0.253906	0.899658	0.599263	0.742533	0.299213	0.538778	-0.650525	0.535290	0.592116	-0.159570	-0.789896
04021														2.959487	5.337133	-7.787079	0.003782	0.007860	0.007260	-0.039307	-0.253906	0.897217	0.599285	0.742477	0.299307	0.538736	-0.650602	0.535239	0.592133	-0.159513	-0.789895
04022														2.918741	5.307397	-7.767455	0.007826	0.009329	0.007603	-0.041504	-0.255859	0.901855	0.599307	0.742417	0.299414	0.538708	-0.650692	0.535157	0.592135	-0.159427	-0.789911
04023														2.955463	5.329015	-7.810016	0.007523	0.005919	0.006989	-0.041504	-0.253906	0.895020	0.599339	0.742360	0.299491	0.538689	-0.650774	0.535077	0.592120	-0.159360	-0.789935
04024														2.946829	5.255069	-7.786649	0.016843	0.007422	0.004385	-0.039551	-0.249756	0.904053	0.599346	0.742321	0.299573	0.538737	-0.650852	0.534934	0.592071	-0.159220	-0.790001
04025														2.958216	5.236926	-7.759065	0.018318	0.007227	0.002000	-0.037598	-0.247803	0.908691	0.599343	0.742299	0.299634	0.538811	-0.650913	0.534784	0.592005	-0.159073	-0.790079
04026														2.935888	5.232579	-7.752692	0.015790	0.007925	0.008874	-0.039551	-0.249756	0.904053	0.599371	0.742234	0.299738	0.538838	-0.651022	0.534625	0.591953	-0.158928	-0.790148
04027														2.975309	5.193962	-7.726453	0.015729	0.005754	0.009166	-0.037354	-0.251953	0.901855	0.599415	0.742163	0.299825	0.538855	-0.651132	0.534474	0.591893	-0.158810	-0.790217
04028														2.987241	5.182247	-7.779407	0.011320	0.006147	0.006426	-0.039551	-0.249756	0.904053	0.599444	0.742109	0.299902	0.538863	-0.651217	0.534362	0.591856	-0.158714	-0.790263
04029														2.970842	5.185036	-7.750060	0.009359	0.003863	0.007000	-0.041504	-0.255859	0.908691	0.599488	0.742049	0.299963	0.538855	-0.651301	0.534268	0.591819	-0.158651	-0.790304
04030														2.997709	5.133808	-7.768874	0.005498	0.001465	0.007854	-0.039551	-0.247803	0.904053	0.599549	0.741979	0.300014	0.538820	-0.651387	0.534199	0.591790	-0.158625	-0.790331
04031														2.971942	5.183461	-7.750692	0.007763	-0.000283	0.009970	-0.037354	-0.249756	0.901855	0.599633	0.741893	0.300058	0.538784	-0.651490	0.534109	0.591736	-0.158603	-0.790375
04032														2.950600	5.209825	-7.726945	0.005196	-0.001946	0.007241	-0.039551	-0.253906	0.901855	0.599713	0.741822	0.300075	0.538754	-0.651571	0.534040	0.591683	-0.158604	-0.790415
04033														2.944834	5.202718	-7.749828	-0.000081	-0.001977	0.010188	-0.037354	-0.251953	0.897217	0.599809	0.741732	0.300106	0.538671	-0.651664	0.534011	0.591661	-0.158646	-0.790423
04034														2.957860	5.221820	-7.785277	0.003597	0.001350	0.008135	-0.035400	-0.253906	0.901855	0.599877	0.741656	0.300155	0.538617	-0.651751	0.533960	0.591641	-0.158642	-0.790439
04035														2.947249	5.231762	-7.733031	0.003536	-0.000820	0.008428	-0.045654	-0.253906	0.908447	0.599957	0.741579	0.300186	0.538566	-0.651836	0.533907	0.591607	-0.158651	-0.790463
04036														2.946039	5.201337	-7.750298	0.001576	-0.003104	0.009002	-0.037354	-0.251953	0.904053	0.600053	0.741494	0.300207	0.538497	-0.651924	0.533868	0.591572	-0.158688	-0.790481
04037														2.946354	5.201115	-7.750327	-0.002346	-0.000229	0.008072	-0.039551	-0.253906	0.904053	0.600127	0.741420	0.300241	0.538413	-0.651998	0.533864	0.591574	-0.158732	-0.790471
04038														2.986955	5.200263	-7.786913	-0.006632	-0.002935	0.006823	-0.043457	-0.251953	0.897217	0.600213	0.741347	0.300249	0.538309	-0.652058	0.533895	0.591581	-0.158824	-0.790447
04039														2.959394	5.220969	-7.785265	-0.004490	-0.001582	0.007448	-0.031250	-0.253906	0.897461	0.600292	0.741275	0.300269	0.538216	-0.652123	0.533909	0.591586	-0.158892	-0.790430
04040														2.963867	5.191959	-7.698433	-0.015650	-0.001022	0.010039	-0.035400	-0.251953	0.904053	0.600387	0.741182	0.300307	0.538035	-0.652194	0.534005	0.591654	-0.159034	-0.790351
04041														2.890504	5.213758	-7.763006	-0.010374	-0.000991	0.007092	-0.037354	-0.253906	0.901855	0.600461	0.741113	0.300330	0.537909	-0.652248	0.534067	0.591694	-0.159136	-0.790300
04042														2.936636	5.213901	-7.695820	-0.012760	-0.003584	0.005562	-0.037354	-0.255859	0.897217	0.600548	0.741046	0.300322	0.537774	-0.652290	0.534151	0.591727	-0.159277	-0.790247
04043														2.896543	5.215745	-7.658363	-0.014297	0.001883	0.006164	-0.039551	-0.251953	0.899414	0.600599	0.740988	0.300363	0.537631	-0.652330	0.534246	0.591805	-0.159383	-0.790167
04044														2.905042	5.259415	-7.698565	-0.012215	0.001065	0.007081	-0.041504	-0.251953	0.901855	0.600664	0.740918	0.300404	0.537488	-0.652384	0.534324	0.591869	-0.159485	-0.790098
04045														2.936742	5.305645	-7.745991	-0.006695	0.002335	0.005040	-0.033203	-0.251709	0.899658	0.600707	0.740868	0.300442	0.537397	-0.652428	0.534362	0.591909	-0.159538	-0.790058
04046														2.961856	5.225400	-7.781355	-0.000992	0.002674	0.004197	-0.041504	-0.243896	0.901611	0.600747	0.740821	0.300479	0.537342	-0.652478	0.534356	0.591918	-0.159553	-0.790048
04047														2.986891	5.258390	-7.771041	-0.007180	-0.000144	0.003228	-0.039551	-0.253906	0.899414	0.600794	0.740779	0.300488	0.537259	-0.652507	0.534404	0.591945	-0.159627	-0.790013
04048														2.981131	5.252414	-7.793178	-0.012580	0.002927	0.004685	-0.037354	-0.251953	0.901855	0.600826	0.740734	0.300533	0.537141	-0.652539	0.534483	0.592020	-0.159703	-0.789941
04049														2.962995	5.226842	-7.779953	-0.006453	0.003574	0.005946	-0.039307	-0.255859	0.899658	0.600866	0.740680	0.300586	0.537045	-0.652590	0.534517	0.592066	-0.159745	-0.789898
04050														2.965209	5.257329	-7.762225	-0.012096	0.005405	0.006498	-0.039551	-0.251953	0.904053	0.600902	0.740622	0.300658	0.536909	-0.652639	0.534594	0.592153	-0.159813	-0.789819
04051														2.915077	5.275542	-7.753071	-0.007689	0.005007	0.009238	-0.043457	-0.260010	0.906250	0.600951	0.740549	0.300739	0.536786	-0.652713	0.534628	0.592215	-0.159853	-0.789765
04052														2.925153	5.229024	-7.741418	-0.003402	0.007710	0.010489	-0.043457	-0.251953	0.901855	0.600989	0.740471	0.300855	0.536678	-0.652804	0.534625	0.592274	-0.159841	-0.789723
04053														2.949300	5.231964	-7.748015	-0.006213	0.004812	0.006853	-0.037354	-0.255859	0.895020	0.601027	0.740414	0.300923	0.536579	-0.652862	0.534654	0.592326	-0.159873	-0.789677
04054														2.966720	5.222281	-7.696452	-0.008657	0.007494	0.003540	-0.041504	-0.253906	0.901855	0.601031	0.740380	0.300998	0.536481	-0.652894	0.534713	0.592411	-0.159899	-0.789609
04055														2.968004	5.228812	-7.776719	-0.000447	0.007320	0.005720	-0.041504	-0.253906	0.895020	0.601047	0.740333	0.301079	0.536422	-0.652952	0.534700	0.592447	-0.159874	-0.789586
04056														2.950269	5.202781	-7.763665	-0.007812	0.008108	0.007749	-0.041504	-0.251953	0.895020	0.601068	0.740274	0.301184	0.536306	-0.653016	0.534740	0.592532	-0.159888	-0.789520
04057														3.015637	5.228572	-7.709093	-0.004978	0.003379	0.003561	-0.039307	-0.255859	0.901855	0.601096	0.740235	0.301222	0.536233	-0.653052	0.534769	0.592569	-0.159922	-0.789485
04058														2.997675	5.202694	-7.696020	-0.007452	0.006245	0.010144	-0.041504	-0.255859	0.901855	0.601143	0.740157	0.301323	0.536103	-0.653134	0.534798	0.592639	-0.159950	-0.789427
04059														3.005107	5.216090	-7.753388	-0.011740	0.003542	0.008892	-0.037354	-0.255859	0.899658	0.601199	0.740083	0.301391	0.535958	-0.653198	0.534865	0.592713	-0.160027	-0.789356
04060														3.005853	5.216827	-7.752603	-0.013824	0.004362	0.007974	-0.039551	-0.245850	0.899414	0.601248	0.740014	0.301463	0.535801	-0.653256	0.534953	0.592805	-0.160115	-0.789269
04061														3.006529	5.217702	-7.751752	-0.015609	0.001147	0.009743	-0.039551	-0.250000	0.910889	0.601323	0.739931	0.301518	0.535628	-0.653320	0.535047	0.592885	-0.160235	-0.789184
04062														2.972769	5.226295	-7.691391	-0.017935	0.000728	0.007919	-0.039551	-0.251953	0.904053	0.601386	0.739862	0.301560	0.535464	-0.653367	0.535154	0.592970	-0.160360	-0.789096
04063														2.984240	5.217119	-7.742875	-0.019721	-0.002488	0.009687	-0.039551	-0.251953	0.904053	0.601482	0.739774	0.301585	0.535267	-0.653424	0.535281	0.593050	-0.160534	-0.789000
04064														2.992407	5.254843	-7.701980	-0.019355	0.003091	0.010014	-0.045654	-0.253906	0.897217	0.601546	0.739693	0.301658	0.535074	-0.653486	0.535399	0.593159	-0.160657	-0.788892
04065														2.951320	5.233630	-7.762070	-0.020812	-0.004338	0.004570	-0.037354	-0.253906	0.901855	0.601625	0.739635	0.301641	0.534902	-0.653503	0.535550	0.593235	-0.160852	-0.788796
04066														2.976224	5.267794	-7.750906	-0.020266	0.000308	0.006096	-0.037354	-0.251953	0.908691	0.601682	0.739575	0.301674	0.534724	-0.653534	0.535690	0.593337	-0.161003	-0.788688
04067														2.959495	5.272961	-7.720054	-0.021748	0.000500	0.008481	-0.041504	-0.255859	0.901855	0.601754	0.739499	0.301717	0.534522	-0.653579	0.535837	0.593447	-0.161168	-0.788572
04068														2.970973	5.263890	-7.771502	-0.016283	-0.000401	0.006732	-0.037354	-0.253906	0.901855	0.601821	0.739433	0.301744	0.534366	-0.653621	0.535941	0.593519	-0.161299	-0.788491
04069														2.994429	5.267738	-7.777721	-0.016168	-0.003505	0.008218	-0.041504	-0.255859	0.901855	0.601915	0.739353	0.301753	0.534198	-0.653673	0.536044	0.593574	-0.161457	-0.788417
04070														3.028305	5.254741	-7.755778	-0.014688	-0.003697	0.005833	-0.043457	-0.256104	0.904053	0.601999	0.739286	0.301750	0.534054	-0.653712	0.536141	0.593619	-0.161605	-0.788353
04071														2.992525	5.233302	-7.712801	-0.017535	-0.006417	0.012089	-0.041504	-0.255859	0.906250	0.602131	0.739176	0.301757	0.533855	-0.653790	0.536243	0.593664	-0.161794	-0.788280
04072														2.971404	5.268147	-7.768452	-0.020824	-0.004338	0.004570	-0.037354	-0.255859	0.901855	0.602205	0.739120	0.301747	0.533685	-0.653808	0.536391	0.593742	-0.161980	-0.788183
04073														2.955748	5.303205	-7.720577	-0.020466	-0.006206	0.006963	-0.041504	-0.253906	0.897217	0.602308	0.739043	0.301728	0.533500	-0.653843	0.536532	0.593804	-0.162186	-0.788095
04074														2.954123	5.274622	-7.736902	-0.018501	-0.003923	0.006395	-0.041504	-0.260010	0.897217	0.602395	0.738973	0.301727	0.533330	-0.653880	0.536657	0.593868	-0.162360	-0.788010
04075														2.954224	5.275817	-7.736049	-0.018080	-0.003620	0.008500	-0.041504	-0.260010	0.899658	0.602491	0.738890	0.301737	0.533149	-0.653930	0.536775	0.593933	-0.162531	-0.787926
04076														2.931106	5.274181	-7.728194	-0.018325	-0.004858	0.007591	-0.039551	-0.251953	0.899414	0.602590	0.738809	0.301739	0.532965	-0.653976	0.536901	0.593997	-0.162715	-0.787839
04077														2.983499	5.287439	-7.718786	-0.015183	-0.006173	0.004017	-0.039307	-0.260010	0.901855	0.602678	0.738752	0.301705	0.532829	-0.653998	0.537010	0.594031	-0.162887	-0.787779
04078														2.952400	5.249172	-7.751157	-0.012857	-0.005759	0.005841	-0.041504	-0.253906	0.897217	0.602773	0.738682	0.301686	0.532696	-0.654040	0.537091	0.594054	-0.163037	-0.787730
04079														2.977163	5.282843	-7.740295	-0.016783	-0.002878	0.004919	-0.039307	-0.255859	0.892822	0.602845	0.738624	0.301683	0.532545	-0.654066	0.537210	0.594116	-0.163195	-0.787651
04080														2.987536	5.266887	-7.711542	-0.009537	-0.008008	0.003461	-0.043457	-0.260010	0.901855	0.602938	0.738567	0.301636	0.532446	-0.654094	0.537273	0.594110	-0.163338	-0.787626
04081														2.957883	5.258414	-7.726808	-0.015187	-0.006174	0.004017	-0.041504	-0.258057	0.904053	0.603026	0.738510	0.301602	0.532309	-0.654116	0.537381	0.594144	-0.163509	-0.787565
04082														2.980903	5.262207	-7.733234	-0.013219	-0.003891	0.003449	-0.043457	-0.256104	0.899414	0.603092	0.738460	0.301590	0.532188	-0.654138	0.537475	0.594186	-0.163644	-0.787505
04083														2.959247	5.290184	-7.708357	-0.014523	-0.004636	0.007031	-0.043457	-0.256104	0.899414	0.603186	0.738386	0.301584	0.532037	-0.654183	0.537569	0.594225	-0.163800	-0.787443
04084														2.963685	5.267826	-7.702205	-0.015305	-0.003069	0.002535	-0.035400	-0.257813	0.897461	0.603238	0.738347	0.301576	0.531913	-0.654193	0.537680	0.594283	-0.163936	-0.787371
04085														2.954756	5.315524	-7.712481	-0.012734	-0.001419	0.005268	-0.039307	-0.258057	0.899658	0.603304	0.738289	0.301586	0.531784	-0.654229	0.537765	0.594332	-0.164057	-0.787308
04086														2.925485	5.307263	-7.727459	-0.017213	-0.003181	0.002816	-0.039307	-0.253906	0.895020	0.603372	0.738240	0.301569	0.531639	-0.654242	0.537892	0.594393	-0.164223	-0.787228
04087														2.930146	5.284842	-7.721272	-0.010522	0.002100	0.005611	-0.041504	-0.253906	0.899414	0.603418	0.738186	0.301609	0.531521	-0.654283	0.537959	0.594451	-0.164303	-0.787167
04088														2.942950	5.305087	-7.756053	-0.005960	-0.001573	-0.000066	-0.037354	-0.261963	0.906494	0.603451	0.738165	0.301594	0.531470	-0.654290	0.538001	0.594463	-0.164369	-0.787144
04089														2.966267	5.308523	-7.762608	-0.011125	0.002734	0.002310	-0.039307	-0.258057	0.899658	0.603477	0.738133	0.301621	0.531368	-0.654306	0.538082	0.594529	-0.164448	-0.787078
04090														2.953888	5.289575	-7.726776	-0.009464	0.001610	0.001120	-0.035400	-0.255859	0.901855	0.603506	0.738104	0.301634	0.531279	-0.654319	0.538154	0.594578	-0.164527	-0.787024
04091														2.954069	5.290203	-7.726277	-0.007558	0.001722	0.000839	-0.037354	-0.257813	0.899658	0.603529	0.738081	0.301645	0.531207	-0.654329	0.538212	0.594619	-0.164590	-0.786981
04092														2.983626	5.300024	-7.710101	-0.007314	0.002958	0.001748	-0.039307	-0.260010	0.901855	0.603555	0.738050	0.301669	0.531132	-0.654350	0.538261	0.594660	-0.164644	-0.786938
04093														3.001133	5.296819	-7.739391	-0.006892	0.003259	0.003853	-0.039307	-0.263916	0.897461	0.603585	0.738009	0.301708	0.531046	-0.654385	0.538304	0.594707	-0.164692	-0.786893
04094														2.959642	5.268277	-7.719413	-0.007071	0.004194	0.002658	-0.039551	-0.253906	0.899414	0.603607	0.737974	0.301751	0.530958	-0.654413	0.538356	0.594763	-0.164738	-0.786841
04095														2.955622	5.292067	-7.724406	-0.006713	0.002323	0.005049	-0.039307	-0.258057	0.899658	0.603649	0.737923	0.301790	0.530866	-0.654456	0.538394	0.594802	-0.164791	-0.786800
04096														2.966502	5.275583	-7.695808	-0.005832	0.002770	-0.000638	-0.041504	-0.260010	0.901855	0.603656	0.737912	0.301804	0.530817	-0.654460	0.538438	0.594838	-0.164829	-0.786765
04097														2.914367	5.263808	-7.704153	-0.003016	0.005654	0.003007	-0.043457	-0.258057	0.892822	0.603668	0.737880	0.301858	0.530759	-0.654494	0.538453	0.594878	-0.164833	-0.786734
04098														2.946359	5.309913	-7.751455	-0.004922	0.005542	0.003287	-0.037354	-0.255859	0.899658	0.603676	0.737848	0.301920	0.530687	-0.654528	0.538483	0.594934	-0.164844	-0.786690
04099														2.929833	5.313675	-7.721403	0.000617	0.006814	0.001250	-0.041504	-0.258057	0.899658	0.603671	0.737830	0.301974	0.530662	-0.654555	0.538475	0.594961	-0.164816	-0.786674
04100														2.949177	5.339909	-7.733601	-0.003195	0.006590	0.001811	-0.043457	-0.253906	0.897217	0.603670	0.737808	0.302031	0.530612	-0.654582	0.538491	0.595007	-0.164810	-0.786641
04101														2.936128	5.297190	-7.796056	-0.000623	0.008238	0.004546	-0.041504	-0.255859	0.899414	0.603674	0.737770	0.302113	0.530559	-0.654632	0.538483	0.595050	-0.164779	-0.786615
04102														2.959608	5.293157	-7.722133	0.001807	0.010668	-0.003811	-0.041504	-0.258057	0.899658	0.603611	0.737796	0.302177	0.530579	-0.654623	0.538475	0.595096	-0.164701	-0.786596
04103														2.952589	5.256656	-7.762039	0.004493	0.009210	0.000404	-0.041504	-0.258057	0.901855	0.603587	0.737788	0.302245	0.530582	-0.654650	0.538439	0.595118	-0.164630	-0.786595
04104														2.914445	5.287136	-7.707916	0.001921	0.007561	-0.002331	-0.041504	-0.258057	0.897217	0.603555	0.737795	0.302290	0.530588	-0.654654	0.538429	0.595145	-0.164580	-0.786585
04105														2.925653	5.269851	-7.679729	0.008547	0.010670	0.000754	-0.039307	-0.258057	0.895020	0.603525	0.737787	0.302371	0.530612	-0.654690	0.538360	0.595154	-0.164472	-0.786600
04106														2.983638	5.257989	-7.665538	0.003672	0.010934	0.005805	-0.039307	-0.258057	0.904053	0.603519	0.737745	0.302485	0.530576	-0.654758	0.538313	0.595193	-0.164391	-0.786588
04107														2.956965	5.278270	-7.663802	0.000922	0.010221	0.001875	-0.041504	-0.255859	0.899414	0.603497	0.737729	0.302569	0.530548	-0.654790	0.538301	0.595239	-0.164336	-0.786565
04108														2.975138	5.274473	-7.693235	-0.000320	0.011645	0.005170	-0.039307	-0.261963	0.899658	0.603482	0.737693	0.302684	0.530497	-0.654846	0.538284	0.595300	-0.164272	-0.786532
04109														2.965850	5.291295	-7.721014	-0.001984	0.012768	0.006360	-0.043457	-0.260010	0.901855	0.603469	0.737652	0.302812	0.530425	-0.654907	0.538281	0.595378	-0.164217	-0.786485
04110														2.958185	5.338055	-7.731440	-0.002406	0.012468	0.004255	-0.037354	-0.260010	0.899658	0.603446	0.737622	0.302930	0.530359	-0.654953	0.538289	0.595459	-0.164167	-0.786434
04111														2.980923	5.311094	-7.755231	-0.002649	0.011232	0.003345	-0.035156	-0.260010	0.901855	0.603426	0.737597	0.303030	0.530302	-0.654990	0.538301	0.595531	-0.164128	-0.786387
04112														2.982038	5.311037	-7.754842	0.001405	0.012691	0.003696	-0.041504	-0.255859	0.899414	0.603409	0.737567	0.303138	0.530260	-0.655042	0.538279	0.595585	-0.164060	-0.786360
04113														2.987600	5.287511	-7.749060	-0.000566	0.010408	0.004260	-0.041504	-0.258057	0.901855	0.603399	0.737535	0.303236	0.530209	-0.655089	0.538272	0.595641	-0.164014	-0.786328
04114														2.959347	5.278004	-7.764598	0.004796	0.012614	0.001032	-0.041504	-0.261963	0.899658	0.603355	0.737529	0.303338	0.530213	-0.655122	0.538227	0.595681	-0.163908	-0.786319
04115														2.949394	5.287694	-7.711985	0.003908	0.012168	0.006718	-0.037354	-0.258057	0.901855	0.603347	0.737484	0.303463	0.530174	-0.655195	0.538177	0.595724	-0.163819	-0.786305
04116														2.915497	5.271418	-7.750335	0.004392	0.014639	0.008538	-0.043457	-0.260010	0.899658	0.603339	0.737427	0.303617	0.530123	-0.655286	0.538117	0.595778	-0.163712	-0.786287
04117														2.956923	5.263067	-7.706199	0.006717	0.015051	0.010365	-0.043457	-0.258057	0.899414	0.603333	0.737363	0.303784	0.530079	-0.655390	0.538033	0.595823	-0.163584	-0.786279
04118														2.944140	5.212636	-7.688307	0.009866	0.013737	0.006791	-0.043457	-0.256104	0.899414	0.603312	0.737321	0.303928	0.530075	-0.655474	0.537935	0.595848	-0.163438	-0.786291
04119														2.987671	5.240837	-7.707633	0.005583	0.018490	0.003477	-0.037354	-0.260010	0.906494	0.603250	0.737307	0.304086	0.530066	-0.655526	0.537881	0.595920	-0.163291	-0.786267
04120														2.981425	5.204049	-7.747441	0.004857	0.014783	0.000747	-0.043457	-0.256104	0.899414	0.603196	0.737304	0.304200	0.530069	-0.655558	0.537838	0.595971	-0.163175	-0.786252
04121														3.013469	5.242710	-7.714216	0.005211	0.012913	0.003138	-0.037354	-0.260010	0.899658	0.603165	0.737284	0.304311	0.530060	-0.655607	0.537788	0.596011	-0.163072	-0.786243
04122														3.037799	5.245044	-7.721048	0.004792	0.012612	0.001032	-0.041504	-0.258057	0.897217	0.603127	0.737274	0.304409	0.530059	-0.655642	0.537746	0.596050	-0.162974	-0.786234
04123														3.026696	5.231782	-7.766387	0.002644	0.011265	0.000400	-0.037354	-0.255859	0.895020	0.603091	0.737269	0.304493	0.530050	-0.655666	0.537725	0.596094	-0.162900	-0.786216
04124														3.033634	5.238276	-7.743267	-0.003253	0.011866	0.000039	-0.043457	-0.255859	0.897217	0.603054	0.737263	0.304579	0.530007	-0.655681	0.537749	0.596170	-0.162863	-0.786166
04125														3.011457	5.235742	-7.735737	-0.004500	0.013291	0.003333	-0.043457	-0.258057	0.895020	0.603022	0.737242	0.304694	0.529938	-0.655716	0.537775	0.596264	-0.162821	-0.786104
04126														2.984915	5.256720	-7.733569	-0.008376	0.010897	0.004174	-0.041504	-0.261963	0.899658	0.603005	0.737212	0.304801	0.529842	-0.655751	0.537827	0.596366	-0.162816	-0.786027
04127														2.945522	5.258131	-7.696177	-0.006826	0.012878	0.001505	-0.039307	-0.255859	0.897217	0.602965	0.737202	0.304903	0.529771	-0.655768	0.537877	0.596470	-0.162792	-0.785953
04128														2.988637	5.287458	-7.714853	-0.004743	0.012054	0.002423	-0.045410	-0.262207	0.901855	0.602940	0.737181	0.305004	0.529702	-0.655798	0.537907	0.596556	-0.162764	-0.785894
04129														3.026081	5.220312	-7.704876	-0.001412	0.009806	0.000047	-0.039307	-0.258057	0.897217	0.602911	0.737176	0.305074	0.529672	-0.655813	0.537919	0.596612	-0.162728	-0.785858
04130														3.013556	5.290801	-7.720751	-0.008861	0.008426	0.002352	-0.037354	-0.257813	0.899658	0.602904	0.737151	0.305149	0.529579	-0.655836	0.537982	0.596702	-0.162751	-0.785786
04131														2.973935	5.292343	-7.683359	-0.008975	0.011531	0.000872	-0.041504	-0.260010	0.899658	0.602869	0.737143	0.305237	0.529499	-0.655845	0.538051	0.596809	-0.162751	-0.785704
04132														2.971628	5.233207	-7.717235	-0.005403	0.010518	-0.000593	-0.037354	-0.258057	0.904053	0.602839	0.737138	0.305307	0.529445	-0.655852	0.538095	0.596887	-0.162741	-0.785647
04133														3.012163	5.226039	-7.672495	-0.008623	0.009660	0.003262	-0.043457	-0.260010	0.901855	0.602827	0.737112	0.305394	0.529352	-0.655879	0.538153	0.596980	-0.162753	-0.785574
04134														3.020662	5.262928	-7.631672	-0.008800	0.010595	0.002067	-0.043457	-0.258057	0.899414	0.602809	0.737091	0.305480	0.529264	-0.655900	0.538214	0.597077	-0.162761	-0.785499
04135														2.977539	5.294567	-7.680430	-0.009937	0.008913	0.006841	-0.039307	-0.255859	0.897217	0.602821	0.737040	0.305580	0.529142	-0.655952	0.538272	0.597173	-0.162787	-0.785420
04136														3.007780	5.304486	-7.663725	-0.010885	0.011419	0.001149	-0.043457	-0.253906	0.897217	0.602790	0.737029	0.305669	0.529049	-0.655961	0.538350	0.597287	-0.162798	-0.785331
04137														2.986299	5.309306	-7.736572	-0.010886	0.011419	0.001149	-0.041504	-0.261963	0.901855	0.602757	0.737019	0.305758	0.528956	-0.655969	0.538433	0.597403	-0.162812	-0.785240
04138														2.993235	5.316337	-7.713041	-0.003613	0.013735	-0.002348	-0.045654	-0.256104	0.897217	0.602692	0.737035	0.305848	0.528928	-0.655965	0.538466	0.597493	-0.162758	-0.785183
04139														2.998590	5.293349	-7.706947	-0.005344	0.012688	-0.000876	-0.045410	-0.258057	0.897217	0.602640	0.737040	0.305936	0.528879	-0.655967	0.538511	0.597588	-0.162725	-0.785117
04140														2.989329	5.310606	-7.734510	-0.002896	0.017439	0.000386	-0.041504	-0.260010	0.901855	0.602561	0.737047	0.306074	0.528842	-0.655982	0.538529	0.597701	-0.162632	-0.785051
04141														2.961526	5.301422	-7.749795	0.001157	0.018897	0.000745	-0.047607	-0.262207	0.901855	0.602481	0.737052	0.306220	0.528823	-0.656006	0.538519	0.597798	-0.162512	-0.785001
04142														2.967371	5.277812	-7.743944	0.004730	0.017884	-0.000718	-0.045654	-0.258057	0.901855	0.602399	0.737064	0.306353	0.528832	-0.656027	0.538484	0.597873	-0.162373	-0.784973
04143														3.036081	5.249059	-7.701021	0.007052	0.018295	0.001113	-0.043457	-0.256104	0.906250	0.602324	0.737065	0.306496	0.528846	-0.656064	0.538426	0.597936	-0.162218	-0.784957
04144														3.025468	5.235716	-7.746345	0.004489	0.016649	-0.001629	-0.043457	-0.258057	0.904053	0.602241	0.737084	0.306614	0.528867	-0.656076	0.538390	0.598001	-0.162082	-0.784936
04145														3.036835	5.218466	-7.717936	0.005855	0.012120	-0.003443	-0.043457	-0.261963	0.899658	0.602180	0.737106	0.306684	0.528901	-0.656077	0.538355	0.598033	-0.161981	-0.784932
04146														3.033403	5.241777	-7.723065	-0.002965	0.015268	0.000667	-0.043457	-0.258057	0.899414	0.602123	0.737103	0.306802	0.528856	-0.656097	0.538375	0.598130	-0.161914	-0.784872
04147														3.062147	5.221480	-7.723850	-0.005173	0.011751	0.000315	-0.045410	-0.260010	0.897217	0.602083	0.737099	0.306889	0.528802	-0.656108	0.538416	0.598218	-0.161888	-0.784811
04148														3.063141	5.221891	-7.723178	-0.006666	0.011939	0.002697	-0.045410	-0.262207	0.899658	0.602055	0.737079	0.306993	0.528723	-0.656136	0.538459	0.598315	-0.161867	-0.784740
04149														3.064266	5.222363	-7.722412	-0.009713	0.010145	0.007745	-0.049561	-0.258057	0.895020	0.602065	0.737023	0.307108	0.528597	-0.656194	0.538512	0.598418	-0.161883	-0.784659
04150														3.010384	5.263866	-7.718822	-0.006501	0.013324	0.013506	-0.043457	-0.253906	0.897217	0.602080	0.736936	0.307286	0.528454	-0.656301	0.538522	0.598528	-0.161847	-0.784583
04151														2.969845	5.234992	-7.698963	-0.006450	0.008048	0.015269	-0.047607	-0.262207	0.904053	0.602142	0.736828	0.307424	0.528302	-0.656420	0.538526	0.598600	-0.161857	-0.784525
04152														2.961363	5.162204	-7.675007	-0.008411	0.013212	0.013781	-0.045654	-0.258057	0.901855	0.602162	0.736739	0.307599	0.528150	-0.656525	0.538546	0.598714	-0.161834	-0.784443
04153														2.878563	5.194870	-7.687022	-0.019858	0.012546	0.015428	-0.043457	-0.255859	0.895020	0.602197	0.736637	0.307773	0.527916	-0.656624	0.538655	0.598884	-0.161898	-0.784300
04154														2.876097	5.219391	-7.690989	-0.020089	0.018756	0.012471	-0.047607	-0.260010	0.895020	0.602179	0.736565	0.307983	0.527703	-0.656702	0.538769	0.599091	-0.161912	-0.784139
04155														2.878417	5.220627	-7.689282	-0.021639	0.024219	0.013091	-0.041504	-0.258057	0.897217	0.602132	0.736497	0.308236	0.527473	-0.656780	0.538899	0.599341	-0.161902	-0.783950
04156														2.870742	5.239190	-7.715449	-0.028009	0.029799	0.008850	-0.045410	-0.258057	0.899414	0.602030	0.736464	0.308512	0.527229	-0.656819	0.539090	0.599657	-0.161892	-0.783710
04157														2.921468	5.276420	-7.709507	-0.025200	0.030359	0.002894	-0.047607	-0.258057	0.899414	0.601893	0.736474	0.308759	0.527039	-0.656817	0.539279	0.599963	-0.161860	-0.783483
04158														2.967752	5.336904	-7.709071	-0.021502	0.033686	0.000870	-0.047607	-0.266113	0.899658	0.601721	0.736503	0.309024	0.526888	-0.656806	0.539440	0.600268	-0.161771	-0.783268
04159														2.980701	5.321505	-7.678708	-0.018392	0.037651	-0.004454	-0.045410	-0.260010	0.897217	0.601500	0.736572	0.309288	0.526782	-0.656760	0.539599	0.600581	-0.161641	-0.783055
04160														3.002394	5.349081	-7.688892	-0.015842	0.039291	-0.001706	-0.043457	-0.261963	0.899658	0.601286	0.736623	0.309582	0.526671	-0.656741	0.539730	0.600893	-0.161484	-0.782848
04161														2.994912	5.367125	-7.715315	-0.005918	0.043108	-0.012333	-0.049561	-0.260010	0.899414	0.600991	0.736753	0.309846	0.526688	-0.656658	0.539815	0.601173	-0.161232	-0.782685
04162														3.003528	5.374189	-7.690979	-0.001872	0.044561	-0.011964	-0.047607	-0.264160	0.904053	0.600691	0.736881	0.310125	0.526727	-0.656586	0.539865	0.601439	-0.160940	-0.782540
04163														3.029815	5.377292	-7.696361	0.002468	0.049418	-0.010961	-0.047607	-0.260010	0.897217	0.600365	0.737011	0.310446	0.526786	-0.656526	0.539880	0.601713	-0.160586	-0.782402
04164														2.982121	5.394867	-7.687156	0.012414	0.050269	-0.010208	-0.047607	-0.264160	0.901855	0.600038	0.737137	0.310779	0.526899	-0.656489	0.539814	0.601939	-0.160160	-0.782316
04165														2.988404	5.340774	-7.698405	0.019922	0.053818	-0.012766	-0.047607	-0.260010	0.899414	0.599676	0.737286	0.311124	0.527074	-0.656444	0.539698	0.602147	-0.159659	-0.782258
04166														2.996045	5.316353	-7.692399	0.020240	0.054906	-0.021749	-0.051514	-0.264160	0.899414	0.599263	0.737493	0.311430	0.527303	-0.656336	0.539607	0.602359	-0.159148	-0.782199
04167														3.022133	5.318267	-7.698651	0.022583	0.052999	-0.029524	-0.047607	-0.260010	0.897217	0.598817	0.737750	0.311679	0.527594	-0.656171	0.539523	0.602547	-0.158636	-0.782159
04168														3.043722	5.343705	-7.710305	0.020597	0.058157	-0.031013	-0.053711	-0.260254	0.899414	0.598333	0.738023	0.311962	0.527879	-0.655994	0.539459	0.602778	-0.158098	-0.782089
04169														3.088703	5.372034	-7.728563	0.022079	0.057966	-0.033389	-0.055664	-0.256104	0.894775	0.597837	0.738312	0.312228	0.528190	-0.655799	0.539391	0.602998	-0.157552	-0.782030
04170														3.101480	5.354233	-7.699806	0.027553	0.057064	-0.035104	-0.051758	-0.260254	0.899414	0.597325	0.738616	0.312488	0.528551	-0.655599	0.539281	0.603188	-0.156961	-0.782002
04171														3.136032	5.309173	-7.695297	0.030942	0.056985	-0.037746	-0.049561	-0.260254	0.904053	0.596811	0.738932	0.312723	0.528941	-0.655385	0.539158	0.603355	-0.156363	-0.781993
04172														3.124902	5.288402	-7.660177	0.029418	0.052679	-0.044699	-0.047607	-0.262207	0.897217	0.596287	0.739285	0.312888	0.529364	-0.655120	0.539066	0.603503	-0.155806	-0.781990
04173														3.127832	5.317527	-7.642689	0.026906	0.053195	-0.047736	-0.053711	-0.266357	0.897217	0.595742	0.739660	0.313040	0.529790	-0.654826	0.539005	0.603667	-0.155263	-0.781971
04174														3.151300	5.289868	-7.666516	0.028916	0.050202	-0.046521	-0.047607	-0.260010	0.899414	0.595228	0.740016	0.313176	0.530209	-0.654547	0.538931	0.603806	-0.154738	-0.781968
04175														3.134991	5.292724	-7.637044	0.029021	0.047095	-0.045039	-0.051758	-0.256104	0.890381	0.594735	0.740363	0.313295	0.530630	-0.654276	0.538845	0.603923	-0.154226	-0.781979
04176														3.163963	5.271464	-7.638161	0.027272	0.046043	-0.043577	-0.055664	-0.256104	0.890381	0.594260	0.740694	0.313412	0.531030	-0.654016	0.538768	0.604039	-0.153737	-0.781986
04177														3.154627	5.287615	-7.666702	0.029705	0.038859	-0.049578	-0.053711	-0.256104	0.899414	0.593791	0.741058	0.313442	0.531482	-0.653711	0.538691	0.604102	-0.153282	-0.782027
04178														3.192955	5.249651	-7.639637	0.026456	0.037995	-0.045743	-0.049561	-0.258057	0.897217	0.593343	0.741396	0.313491	0.531895	-0.653430	0.538625	0.604179	-0.152845	-0.782053
04179														3.177549	5.259652	-7.690932	0.020270	0.035176	-0.046775	-0.053711	-0.262207	0.897217	0.592911	0.741734	0.313508	0.532274	-0.653131	0.538613	0.604270	-0.152478	-0.782054
04180														3.160026	5.263156	-7.661521	0.020566	0.031141	-0.044095	-0.049561	-0.260010	0.899414	0.592522	0.742045	0.313507	0.532631	-0.652856	0.538593	0.604335	-0.152145	-0.782068
04181														3.117911	5.233794	-7.642892	0.020732	0.030206	-0.042898	-0.057861	-0.262207	0.904053	0.592141	0.742350	0.313505	0.532989	-0.652587	0.538566	0.604394	-0.151812	-0.782088
04182														3.085655	5.277193	-7.647702	0.022984	0.028456	-0.040765	-0.047607	-0.256104	0.895020	0.591783	0.742636	0.313504	0.533343	-0.652339	0.538516	0.604432	-0.151480	-0.782123
04183														3.114489	5.286305	-7.631730	0.020439	0.026797	-0.043522	-0.053711	-0.256104	0.899414	0.591418	0.742940	0.313472	0.533702	-0.652064	0.538493	0.604472	-0.151174	-0.782151
04184														3.104397	5.302780	-7.660364	0.019957	0.028827	-0.036022	-0.057861	-0.258301	0.901611	0.591087	0.743194	0.313494	0.534013	-0.651846	0.538448	0.604521	-0.150860	-0.782174
04185														3.098937	5.295525	-7.683625	0.027480	0.024959	-0.036497	-0.053711	-0.260254	0.901611	0.590771	0.743449	0.313486	0.534373	-0.651634	0.538348	0.604512	-0.150521	-0.782246
04186														3.100151	5.324501	-7.666971	0.027194	0.031151	-0.039464	-0.059814	-0.258301	0.896973	0.590399	0.743732	0.313515	0.534748	-0.651400	0.538259	0.604544	-0.150136	-0.782295
04187														3.063884	5.300974	-7.625909	0.028725	0.033127	-0.042120	-0.055664	-0.258057	0.899414	0.590003	0.744035	0.313541	0.535148	-0.651147	0.538167	0.604577	-0.149729	-0.782348
04188														3.043160	5.303610	-7.700479	0.029015	0.038693	-0.041782	-0.055664	-0.258301	0.901611	0.589569	0.744346	0.313620	0.535548	-0.650897	0.538072	0.604646	-0.149273	-0.782382
04189														3.059509	5.292507	-7.649573	0.030500	0.038500	-0.044151	-0.055908	-0.256104	0.899414	0.589129	0.744670	0.313677	0.535971	-0.650631	0.537972	0.604700	-0.148814	-0.782427
04190														3.054438	5.285012	-7.672836	0.029678	0.037882	-0.048368	-0.055908	-0.250000	0.903809	0.588669	0.745020	0.313710	0.536413	-0.650334	0.537892	0.604756	-0.148362	-0.782470
04191														3.082627	5.263989	-7.674072	0.028893	0.039429	-0.052872	-0.057861	-0.260254	0.897217	0.588177	0.745402	0.313727	0.536877	-0.650000	0.537832	0.604823	-0.147907	-0.782504
04192														3.135008	5.276236	-7.664435	0.024482	0.039806	-0.055659	-0.059814	-0.258301	0.901611	0.587662	0.745803	0.313737	0.537334	-0.649639	0.537812	0.604918	-0.147470	-0.782513
04193														3.111860	5.273168	-7.657896	0.022596	0.041847	-0.055687	-0.053711	-0.256104	0.904053	0.587139	0.746206	0.313758	0.537776	-0.649274	0.537811	0.605032	-0.147038	-0.782506
04194														3.065459	5.267206	-7.644744	0.022026	0.044627	-0.059282	-0.053711	-0.258057	0.899414	0.586579	0.746635	0.313785	0.538235	-0.648882	0.537824	0.605168	-0.146586	-0.782486
04195														3.083531	5.263581	-7.673989	0.025772	0.042697	-0.059509	-0.053711	-0.258057	0.897217	0.586030	0.747063	0.313793	0.538718	-0.648493	0.537810	0.605270	-0.146126	-0.782493
04196														3.079136	5.286688	-7.679712	0.027501	0.045906	-0.061253	-0.057861	-0.250000	0.899170	0.585459	0.747502	0.313814	0.539214	-0.648097	0.537790	0.605381	-0.145641	-0.782497
04197														3.112237	5.242997	-7.674705	0.024509	0.048443	-0.056808	-0.059814	-0.260254	0.899414	0.584889	0.747920	0.313881	0.539673	-0.647726	0.537777	0.605523	-0.145147	-0.782480
04198														3.078836	5.226346	-7.713763	0.028135	0.051774	-0.058810	-0.057861	-0.258301	0.899414	0.584283	0.748356	0.313969	0.540166	-0.647344	0.537741	0.605668	-0.144598	-0.782469
04199														3.084136	5.203129	-7.707751	0.019268	0.048178	-0.063819	-0.062012	-0.254150	0.901611	0.583676	0.748818	0.313996	0.540634	-0.646912	0.537791	0.605836	-0.144139	-0.782424
04200														3.142173	5.222973	-7.674529	0.025191	0.051944	-0.063967	-0.060059	-0.252197	0.899170	0.583041	0.749287	0.314058	0.541138	-0.646487	0.537796	0.605998	-0.143608	-0.782396
04201														3.199678	5.212400	-7.658641	0.027454	0.045153	-0.050150	-0.057861	-0.256104	0.901611	0.582525	0.749656	0.314135	0.541575	-0.646168	0.537739	0.606103	-0.143119	-0.782404
04202														3.153052	5.175573	-7.663028	0.031021	0.044157	-0.051569	-0.060059	-0.252197	0.901611	0.582005	0.750032	0.314200	0.542042	-0.645844	0.537657	0.606185	-0.142609	-0.782434
04203														3.205166	5.158025	-7.670154	0.025298	0.043779	-0.050803	-0.053711	-0.250000	0.899414	0.581494	0.750402	0.314263	0.542470	-0.645517	0.537619	0.606293	-0.142144	-0.782435
04204														3.169894	5.165193	-7.611378	0.016152	0.041301	-0.047130	-0.060059	-0.250244	0.899170	0.581019	0.750744	0.314326	0.542824	-0.645205	0.537636	0.606432	-0.141753	-0.782398
04205														3.127367	5.195402	-7.661612	0.011635	0.041864	-0.040039	-0.062012	-0.256348	0.899414	0.580577	0.751041	0.314431	0.543106	-0.644939	0.537671	0.606602	-0.141390	-0.782331
04206														3.165983	5.248570	-7.685097	0.009020	0.042554	-0.033204	-0.066162	-0.252197	0.894775	0.580164	0.751296	0.314585	0.543333	-0.644720	0.537704	0.606794	-0.141032	-0.782247
04207														3.190645	5.252218	-7.690591	0.005138	0.035807	-0.031823	-0.059814	-0.254150	0.901611	0.579803	0.751532	0.314687	0.543527	-0.644506	0.537764	0.606965	-0.140756	-0.782165
04208														3.142949	5.275994	-7.763441	0.004542	0.036415	-0.035132	-0.060059	-0.248047	0.901611	0.579413	0.751792	0.314785	0.543739	-0.644265	0.537839	0.607148	-0.140470	-0.782074
04209														3.206018	5.273102	-7.723893	0.010631	0.037106	-0.033780	-0.059814	-0.252197	0.896973	0.579034	0.752041	0.314887	0.543978	-0.644044	0.537862	0.607295	-0.140149	-0.782017
04210														3.174198	5.316801	-7.728414	0.006799	0.034687	-0.032983	-0.063965	-0.254150	0.896973	0.578671	0.752283	0.314977	0.544194	-0.643823	0.537908	0.607448	-0.139863	-0.781950
04211														3.156419	5.290764	-7.715686	0.009047	0.030800	-0.030542	-0.063965	-0.250244	0.901367	0.578348	0.752502	0.315046	0.544404	-0.643624	0.537933	0.607568	-0.139600	-0.781904
04212														3.126445	5.304668	-7.634055	0.013844	0.032922	-0.025917	-0.060059	-0.250244	0.901611	0.578028	0.752698	0.315166	0.544620	-0.643465	0.537904	0.607678	-0.139278	-0.781875
04213														3.132535	5.281082	-7.627960	0.013320	0.032817	-0.018136	-0.063965	-0.252197	0.901611	0.577759	0.752840	0.315318	0.544785	-0.643365	0.537858	0.607786	-0.138972	-0.781846
04214														3.128826	5.273742	-7.650585	0.015591	0.031095	-0.015985	-0.062012	-0.256348	0.903809	0.577509	0.752968	0.315473	0.544955	-0.643284	0.537782	0.607871	-0.138655	-0.781836
04215														3.124972	5.266016	-7.673536	0.022955	0.028200	-0.017604	-0.060059	-0.252197	0.899170	0.577271	0.753100	0.315592	0.545175	-0.643201	0.537658	0.607900	-0.138321	-0.781873
04216														3.159421	5.251791	-7.651397	0.017025	0.024413	-0.017469	-0.063965	-0.252197	0.903809	0.577059	0.753224	0.315685	0.545356	-0.643113	0.537581	0.607940	-0.138055	-0.781889
04217														3.192447	5.297213	-7.698505	0.015140	0.026448	-0.017511	-0.059814	-0.252197	0.896973	0.576832	0.753353	0.315791	0.545527	-0.643020	0.537518	0.608001	-0.137785	-0.781889
